"Time (s)","Gyroscope x (rad/s)","Gyroscope y (rad/s)","Gyroscope z (rad/s)"
1.376802100E-2,-2.211703062E-1,1.884113103E-1,-2.744003385E-2
1.193190110E-1,-1.204926968E-1,-1.780676246E-1,-5.532237142E-2
1.359849480E-1,-2.473622933E-2,-3.005042300E-2,-5.618903786E-2
1.526508860E-1,1.643906981E-1,1.929341704E-1,-2.912516147E-2
1.693168230E-1,3.278271258E-1,4.251342714E-1,-1.540331915E-2
1.859827610E-1,4.305190444E-1,5.345908403E-1,-1.373020560E-2
2.026486980E-1,4.090021253E-1,4.926722646E-1,-3.630083054E-2
2.193146360E-1,2.569099069E-1,3.260736763E-1,-7.717119157E-2
2.359805730E-1,7.180093974E-2,4.900560156E-2,-9.037872404E-2
2.526465110E-1,-7.276154310E-2,-1.798656434E-1,-6.010995805E-2
2.693124480E-1,-1.644894928E-1,-2.485889494E-1,-2.453423291E-2
2.859783860E-1,-2.032917589E-1,-2.000268847E-1,4.129558802E-4
3.026443230E-1,-2.096021622E-1,-1.735160649E-1,-1.255566627E-2
3.193102610E-1,-1.973259449E-1,-2.306928486E-1,-3.140257299E-2
3.359761980E-1,-1.883854717E-1,-3.365829587E-1,-2.426967397E-2
3.526421360E-1,-1.626078784E-1,-4.145647883E-1,1.780845411E-2
3.693080730E-1,-8.578167856E-2,-4.228312969E-1,7.167771459E-2
3.859740110E-1,6.135566626E-3,-3.367782235E-1,9.488509595E-2
4.026399480E-1,9.145352989E-2,-1.578704417E-1,8.298372477E-2
4.193058860E-1,1.418223381E-1,9.575369768E-3,7.010343671E-2
4.359718230E-1,1.727983654E-1,8.824595250E-3,5.259831995E-2
4.526377610E-1,1.952252984E-1,-1.378101856E-1,2.423120290E-2
4.693036980E-1,2.018801868E-1,-3.023313284E-1,-2.463027835E-3
4.859696360E-1,1.836345345E-1,-3.222885430E-1,-4.970043898E-3
5.026355730E-1,1.386969239E-1,-2.016453594E-1,1.235254295E-2
5.193015110E-1,1.118167117E-1,-7.323720306E-2,1.227557845E-2
5.359674480E-1,1.031490043E-1,-2.148894221E-2,2.379249781E-3
5.526333860E-1,1.096726879E-1,-5.046880618E-2,1.977328211E-3
5.692993230E-1,8.884691447E-2,-1.229734197E-1,2.457877621E-2
5.859652610E-1,3.045465797E-2,-1.930673569E-1,6.117688119E-2
6.026311980E-1,-5.720320344E-2,-2.276670486E-1,8.777086437E-2
6.192971360E-1,-8.975704759E-2,-2.388561666E-1,1.099467799E-1
6.359630730E-1,-1.177638676E-2,-2.873857319E-1,1.787661910E-1
6.526290110E-1,1.062235385E-1,-4.844868481E-1,2.247558236E-1
6.692949480E-1,7.427021116E-2,-3.415917754E-1,1.934111416E-1
6.859608860E-1,4.342055693E-2,2.328448370E-2,1.062650010E-1
7.026268230E-1,9.100601822E-2,2.365137041E-1,9.904345497E-3
7.192927610E-1,1.098196134E-1,2.148639113E-1,-5.457316339E-2
7.359586980E-1,1.245895550E-1,8.309690654E-2,-7.922644913E-2
7.526246360E-1,1.397905350E-1,-3.603569046E-2,-5.415944755E-2
7.692905730E-1,9.909071773E-2,2.776877955E-3,1.249388047E-2
7.859565110E-1,8.187416196E-2,1.479922831E-1,1.116229743E-1
8.026224480E-1,1.304369718E-1,2.261434942E-1,1.804317832E-1
8.192883860E-1,1.906538606E-1,2.314047515E-1,2.036741674E-1
8.359543230E-1,2.364745140E-1,2.235230654E-1,1.880924106E-1
8.526202610E-1,2.596368492E-1,2.135434598E-1,1.632353365E-1
8.692861980E-1,2.655956745E-1,1.943401545E-1,1.435065866E-1
8.859521360E-1,2.097652704E-1,1.738642007E-1,9.703132510E-2
9.026180730E-1,1.223674491E-1,1.219282225E-1,6.638786942E-2
9.192840110E-1,3.845881298E-2,7.959911972E-2,5.386536568E-2
9.359499480E-1,-3.628525510E-2,7.925461978E-2,4.107384756E-2
9.526158860E-1,-9.813105315E-2,1.023762822E-1,2.301393449E-2
9.692818230E-1,-1.441490054E-1,1.481747627E-1,1.196934097E-2
9.859477610E-1,-1.339877844E-1,2.130617797E-1,3.515236452E-2
1.002613698E0,-5.614772439E-2,2.380674332E-1,9.495048225E-2
1.019279636E0,3.235278651E-2,2.377188355E-1,1.496815085E-1
1.035945573E0,8.932041377E-2,3.016231656E-1,1.755860746E-1
1.052611511E0,1.274854094E-1,3.897987008E-1,1.784098148E-1
1.069277448E0,1.624857187E-1,3.970324695E-1,1.620559692E-1
1.085943386E0,1.741714627E-1,3.095737100E-1,1.405971050E-1
1.102609323E0,1.543287188E-1,1.804279238E-1,1.075475067E-1
1.119275261E0,8.246825635E-2,3.865861148E-2,7.184164226E-2
1.135941198E0,2.778990567E-2,-1.177108511E-1,3.011550941E-2
1.152607136E0,3.526809812E-2,-2.358346730E-1,-1.223595068E-2
1.169273073E0,8.346062154E-2,-2.610367537E-1,-2.687192708E-2
1.185939011E0,9.486006945E-2,-1.838520020E-1,-1.942097768E-2
1.202604948E0,6.584236026E-2,-5.953799188E-2,-2.748602629E-2
1.219270886E0,7.862501591E-2,3.774751350E-2,-2.494871244E-2
1.235936823E0,1.135682389E-1,4.758757725E-2,-1.278861240E-2
1.252602761E0,1.160677597E-1,1.169458590E-2,-7.521834224E-3
1.269268698E0,7.820706069E-2,-2.783124894E-2,4.659704864E-4
1.285934636E0,2.482127771E-2,-5.924104899E-2,1.900415681E-2
1.302600573E0,4.198628012E-3,-1.139342040E-1,3.673937917E-2
1.319266511E0,2.107544616E-2,-1.665891558E-1,4.836419225E-2
1.335932448E0,3.222405910E-2,-1.229698583E-1,3.212999552E-2
1.352598386E0,6.133622304E-2,3.535295278E-2,-3.888145089E-3
1.369264323E0,1.149379164E-1,2.234788835E-1,-1.972349361E-2
1.385930261E0,2.018082738E-1,3.252499998E-1,5.053859204E-3
1.402596198E0,2.704038918E-1,3.086991012E-1,6.986827403E-2
1.419262136E0,2.645089328E-1,2.537924647E-1,1.221721172E-1
1.435928073E0,2.091183364E-1,2.551331818E-1,1.279227734E-1
1.452594011E0,1.364046782E-1,2.960069776E-1,9.001875669E-2
1.469259948E0,6.727474183E-2,3.040840626E-1,3.514860943E-2
1.485925886E0,8.516435046E-4,2.495494336E-1,3.814756870E-3
1.502591823E0,-4.432209209E-2,2.185213417E-1,1.798190176E-2
1.519257761E0,-1.533859503E-2,2.759345174E-1,5.259538442E-2
1.535923698E0,6.339023262E-2,3.765371442E-1,9.944657981E-2
1.552589636E0,1.149793044E-1,4.160779119E-1,1.328881681E-1
1.569255573E0,1.091775447E-1,3.783595264E-1,1.445679665E-1
1.585921511E0,6.979649514E-2,3.031204641E-1,1.132395938E-1
1.602587448E0,1.292788330E-2,1.932314932E-1,4.844355956E-2
1.619253386E0,-2.237472311E-2,5.735787004E-2,-2.423693612E-2
1.635919323E0,-2.616173774E-2,-8.958487213E-2,-7.437360287E-2
1.652585261E0,-3.068457823E-3,-1.842822731E-1,-6.898713857E-2
1.669251198E0,7.372532971E-3,-1.713301837E-1,-4.874209315E-2
1.685917136E0,2.035065088E-3,4.645779263E-3,-6.149966270E-2
1.702583073E0,2.060447261E-2,2.486907393E-1,-9.999602288E-2
1.719249011E0,7.657300681E-2,4.620150030E-1,-1.166047528E-1
1.735914948E0,1.139612943E-1,5.649133325E-1,-1.048729345E-1
1.752580886E0,7.391159981E-2,4.886498451E-1,-7.682721317E-2
1.769246823E0,3.204615042E-2,3.513910472E-1,-2.029735968E-2
1.785912761E0,3.904397786E-2,3.518350124E-1,2.948209830E-2
1.802578698E0,7.375080138E-2,4.491609931E-1,4.108133540E-2
1.819244636E0,1.040167734E-1,5.064115524E-1,3.152509034E-2
1.835910573E0,1.157902032E-1,4.689921737E-1,6.423233077E-3
1.852576511E0,9.404156357E-2,4.035482109E-1,-2.567965910E-2
1.869242448E0,8.305450529E-2,3.281500936E-1,-5.617702752E-2
1.885908386E0,1.046766564E-1,2.928092480E-1,-7.917897403E-2
1.902574323E0,9.945036471E-2,2.840443254E-1,-9.556701034E-2
1.919240261E0,5.820155516E-2,2.292572707E-1,-8.932300657E-2
1.935906198E0,2.068379149E-2,1.705845743E-1,-4.264025390E-2
1.952572136E0,-2.547044307E-2,1.994224638E-1,1.168631203E-2
1.969238073E0,-6.598830223E-2,2.614959776E-1,4.124876857E-2
1.985904011E0,-9.392099082E-2,2.741675079E-1,3.928650916E-2
2.002569948E0,-9.234859049E-2,2.230483592E-1,1.825528592E-2
2.019235886E0,-4.487258568E-2,1.790251285E-1,1.232571900E-3
2.035901823E0,1.996578276E-2,1.786018312E-1,-1.068456843E-2
2.052567761E0,7.171849161E-2,1.405690759E-1,-2.416663244E-2
2.069233698E0,1.067439169E-1,2.983937599E-2,-3.906442225E-2
2.085899636E0,1.221280470E-1,-4.871282354E-2,-4.547616839E-2
2.102565573E0,1.280907542E-1,-4.751999304E-2,-3.972090781E-2
2.119231511E0,1.087562591E-1,-2.508676052E-2,-4.261741042E-2
2.135897448E0,6.806623936E-2,-1.729570515E-2,-4.917366058E-2
2.152563386E0,1.481430791E-2,-1.601231750E-3,-4.666102678E-2
2.169229323E0,-4.071513191E-2,4.404832423E-2,-3.505152464E-2
2.185895261E0,-7.500582933E-2,1.135663986E-1,-1.835789904E-2
2.202561198E0,-7.003042102E-2,1.923814714E-1,-1.544155180E-3
2.219227136E0,-3.103638813E-2,2.495548278E-1,2.472954988E-2
2.235893073E0,2.935959771E-2,2.592535019E-1,4.577360675E-2
2.252559011E0,7.440481335E-2,2.429834902E-1,4.743944481E-2
2.269224948E0,8.157502860E-2,2.226144373E-1,4.416809976E-2
2.285890886E0,5.257694423E-2,2.029191703E-1,3.970171884E-2
2.302556823E0,1.498988643E-2,1.693276018E-1,2.716719359E-2
2.319222761E0,-1.260219980E-2,1.277559400E-1,1.766377501E-2
2.335888698E0,-2.885500714E-2,1.087998152E-1,1.436282136E-2
2.352554636E0,-3.039968014E-2,1.088435650E-1,2.239785343E-2
2.369220573E0,-1.643302292E-2,1.098381653E-1,3.340014070E-2
2.385886511E0,-1.779001206E-2,1.077486873E-1,3.678417578E-2
2.402552448E0,-4.501391575E-2,1.387099475E-1,2.838834003E-2
2.419218386E0,-7.561001927E-2,1.963757724E-1,2.429351211E-2
2.435884323E0,-9.257487953E-2,2.435465157E-1,2.964832634E-2
2.452550261E0,-8.325328678E-2,2.446570247E-1,3.740614280E-2
2.469216198E0,-6.837900728E-2,2.207678705E-1,4.309761152E-2
2.485882136E0,-5.669205263E-2,1.885825843E-1,5.397959799E-2
2.502548073E0,-3.638261929E-2,1.684133708E-1,6.180737913E-2
2.519214011E0,-1.878177375E-2,1.674797684E-1,6.722545624E-2
2.535879948E0,-1.146951038E-2,1.469018906E-1,6.751608849E-2
2.552545886E0,-1.406142209E-2,8.260939270E-2,4.808614776E-2
2.569211823E0,-2.484198660E-2,2.927253023E-3,2.025573887E-2
2.585877761E0,-4.073362052E-2,-3.996344656E-2,-1.825936139E-3
2.602543698E0,-4.503973946E-2,-3.315817565E-2,-7.938619703E-3
2.619209636E0,-3.399506584E-2,-2.019816823E-2,-5.397524685E-3
2.635875573E0,-1.410361473E-2,-2.819969505E-2,1.733560115E-3
2.652541511E0,-7.631002925E-3,-3.490329534E-2,6.945753470E-3
2.669207448E0,-4.394330084E-3,-2.141752839E-2,6.267813966E-3
2.685873386E0,5.612973124E-3,-1.299915276E-2,3.165278584E-3
2.702539323E0,1.433201693E-2,-1.065197214E-2,5.074724555E-3
2.719205261E0,1.872635633E-2,4.813546315E-3,1.260255836E-2
2.735871198E0,1.260670647E-2,3.964227065E-2,2.207086608E-2
2.752537136E0,3.737862455E-3,3.351907805E-2,2.062650770E-2
2.769203073E0,9.391596541E-4,-4.869125318E-3,7.497461513E-3
2.785869011E0,-6.926316768E-3,-3.155049309E-2,-1.111907139E-2
2.802534948E0,-1.021786965E-2,-3.070640191E-2,-2.055268362E-2
2.819200886E0,-6.889687851E-3,9.999061003E-4,-6.993789226E-3
2.835866823E0,-3.884525970E-3,-8.879534900E-3,1.507656090E-2
2.852532761E0,-2.063307911E-4,-3.006349877E-2,2.845553681E-2
2.869198698E0,8.623072878E-3,1.179738902E-2,2.879431844E-2
2.885864636E0,2.426078916E-2,6.258615106E-2,2.049601637E-2
2.902530573E0,5.248389021E-2,9.892780334E-2,2.078388818E-2
2.919196511E0,8.775589615E-2,1.487037539E-1,2.718635276E-2
2.935862448E0,1.111926213E-1,1.615662873E-1,2.687745914E-2
2.952528386E0,1.337451041E-1,1.257578135E-1,2.166728675E-2
2.969194323E0,1.657461822E-1,1.157089546E-1,1.716346294E-2
2.985860261E0,1.435285956E-1,1.395388693E-1,1.095793396E-2
3.002526198E0,6.933024526E-2,1.054286957E-1,1.962785423E-2
3.019192136E0,8.907075040E-3,1.122654788E-2,4.863119125E-2
3.035858073E0,-1.838306710E-2,-8.069832623E-2,8.556047082E-2
3.052524011E0,-2.158177271E-2,-1.136597320E-1,1.076314151E-1
3.069189948E0,-1.619077101E-2,-1.084138975E-1,1.122578830E-1
3.085855886E0,-1.078503393E-2,-1.031024754E-1,1.010482460E-1
3.102521823E0,-6.255732849E-3,-1.072294712E-1,8.026742190E-2
3.119187761E0,4.893904086E-3,-1.149814129E-1,4.906212166E-2
3.135853698E0,2.503855899E-2,-1.128556058E-1,2.156162634E-2
3.152519636E0,5.913463235E-2,-1.021682918E-1,8.187634870E-3
3.169185573E0,9.137936682E-2,-6.911028922E-2,8.650185540E-3
3.185851511E0,1.101167426E-1,-1.812622137E-2,2.263811976E-2
3.202517448E0,1.113791317E-1,1.967067271E-2,3.068145923E-2
3.219183386E0,9.084571153E-2,4.389219359E-2,2.854858339E-2
3.235849323E0,6.609133631E-2,6.028883904E-2,2.388526499E-2
3.252515261E0,2.733111754E-2,7.231813669E-2,2.081416547E-2
3.269181198E0,6.772662513E-3,6.957492232E-2,2.092058957E-2
3.285847136E0,2.957055718E-2,5.702150613E-2,3.474624455E-2
3.302513073E0,6.000310555E-2,5.222787336E-2,5.731515959E-2
3.319179011E0,8.488475531E-2,3.755439818E-2,6.842190772E-2
3.335844948E0,1.008353978E-1,3.413107991E-2,7.013067603E-2
3.352510886E0,1.013315469E-1,5.181788281E-2,7.013924420E-2
3.369176823E0,8.136092871E-2,5.871383101E-2,6.350847334E-2
3.385842761E0,3.589836136E-2,-1.619469840E-3,3.645966947E-2
3.402508698E0,3.394466359E-3,-9.919413179E-2,2.139251679E-3
3.419174636E0,1.874123327E-2,-1.734346002E-1,-2.319641039E-2
3.435840573E0,3.167146072E-2,-1.669436395E-1,-2.515999228E-2
3.452506511E0,1.445771474E-2,-9.836311638E-2,-2.348072082E-2
3.469172448E0,1.563487342E-3,-1.285775192E-2,-2.231312171E-2
3.485838386E0,-9.068153799E-3,5.941667408E-2,-1.217224821E-2
3.502504323E0,-4.033486545E-2,1.085306183E-1,7.580013946E-3
3.519170261E0,-9.971698374E-2,1.428475082E-1,3.113266081E-2
3.535836198E0,-1.429300308E-1,1.693818867E-1,4.699643329E-2
3.552502136E0,-1.413504332E-1,1.866912097E-1,5.429463089E-2
3.569168073E0,-9.290594608E-2,1.999475211E-1,5.176571384E-2
3.585834011E0,1.761507802E-2,1.782232821E-1,5.833505839E-2
3.602499948E0,1.510550082E-1,1.337565929E-1,6.739124656E-2
3.619165886E0,2.555787563E-1,1.245104671E-1,6.751546264E-2
3.635831823E0,3.261541724E-1,2.054895014E-1,4.724895954E-2
3.652497761E0,3.798475266E-1,3.544691503E-1,8.648507297E-3
3.669163698E0,3.938767016E-1,4.233307540E-1,-5.014178902E-2
3.685829636E0,3.410312533E-1,2.880873680E-1,-1.112013087E-1
3.702495573E0,2.268648297E-1,2.695844509E-2,-1.632114947E-1
3.719161511E0,6.527552009E-2,-1.741980165E-1,-2.098139524E-1
3.735827448E0,-7.921922952E-2,-2.213673890E-1,-2.312117517E-1
3.752493386E0,-1.354076862E-1,-2.279674113E-1,-2.159928381E-1
3.769159323E0,-1.164021343E-1,-2.821958363E-1,-1.936894655E-1
3.785825261E0,-6.252401322E-2,-3.396827579E-1,-1.870367825E-1
3.802491198E0,1.267558709E-2,-2.912828028E-1,-1.622417867E-1
3.819157136E0,1.196013615E-1,-8.258134127E-2,-1.375827789E-1
3.835823073E0,2.653942704E-1,1.828531474E-1,-1.385732293E-1
3.852489011E0,3.969755769E-1,3.237916827E-1,-1.506739557E-1
3.869154948E0,4.354615510E-1,3.127612770E-1,-1.791010797E-1
3.885820886E0,3.649826348E-1,2.650288939E-1,-2.105845213E-1
3.902486823E0,2.678783238E-1,1.969203055E-1,-2.337611616E-1
3.919152761E0,2.355860621E-1,4.193624482E-2,-2.395094931E-1
3.935818698E0,2.484544665E-1,-1.598739922E-1,-2.521540523E-1
3.952484636E0,2.504566908E-1,-3.218820393E-1,-2.805927694E-1
3.969150573E0,2.391499877E-1,-4.293278456E-1,-3.153070509E-1
3.985816511E0,2.302552760E-1,-4.708551764E-1,-3.483138978E-1
4.002482448E0,2.083883882E-1,-4.695962965E-1,-3.745520711E-1
4.019148386E0,1.522796303E-1,-4.920287430E-1,-3.908142745E-1
4.035814323E0,1.053128019E-2,-6.044088006E-1,-4.194842875E-1
4.052480261E0,-2.569155097E-1,-7.608975768E-1,-4.252502620E-1
4.069146198E0,-5.499060154E-1,-9.401713014E-1,-3.596088290E-1
4.085812136E0,-7.709550261E-1,-1.099709153E0,-2.324472964E-1
4.102478073E0,-8.899088502E-1,-1.174480200E0,-3.193119168E-2
4.119144011E0,-8.657892346E-1,-1.087541342E0,1.519525051E-1
4.135809948E0,-6.539762616E-1,-7.219273448E-1,2.592439055E-1
4.152475886E0,-4.203948677E-1,-1.812976897E-1,3.624609411E-1
4.169141823E0,-4.131847024E-1,1.461897939E-1,5.863363743E-1
4.185807761E0,-5.319988728E-1,1.996147186E-1,6.817423105E-1
4.202473698E0,-7.058854699E-1,1.445166618E-1,6.507781744E-1
4.219139636E0,-1.060699224E0,2.258611619E-1,5.507335663E-1
4.235805573E0,-1.569715619E0,5.132630467E-1,4.700842500E-1
4.252471511E0,-1.980042815E0,8.095412254E-1,4.516532123E-1
4.269137448E0,-2.261183023E0,8.735256791E-1,5.046406984E-1
4.285803386E0,-2.465524197E0,7.138075233E-1,5.529333353E-1
4.302469323E0,-2.412451267E0,5.662603378E-1,5.467082262E-1
4.319135261E0,-2.121836424E0,5.284109712E-1,4.712662399E-1
4.335801198E0,-1.684213877E0,6.481899619E-1,4.175325036E-1
4.352467136E0,-1.293346405E0,6.889965534E-1,4.397513270E-1
4.369133073E0,-1.117231250E0,7.059311271E-1,5.113784075E-1
4.385799011E0,-1.161573172E0,6.739584804E-1,6.055147052E-1
4.402464948E0,-1.237586617E0,2.403682917E-1,6.797947884E-1
4.419130886E0,-1.099250555E0,-2.489873767E-1,7.555936575E-1
4.435796823E0,-7.834210396E-1,-2.921038270E-1,8.350716829E-1
4.452462761E0,-3.969767094E-1,8.140620589E-2,8.545572758E-1
4.469128698E0,-7.459563762E-2,4.170733392E-1,7.606661916E-1
4.485794636E0,9.214777499E-2,4.072274566E-1,5.421825051E-1
4.502460573E0,1.409674585E-1,2.330389470E-1,2.696714997E-1
4.519126511E0,1.234857589E-1,2.728137374E-1,2.279186621E-2
4.535792448E0,1.069346592E-1,4.109502733E-1,-1.507222056E-1
4.552458386E0,9.539876133E-2,4.270246625E-1,-2.699254453E-1
4.569124323E0,9.950079024E-2,3.698016405E-1,-3.110621870E-1
4.585790261E0,1.291625500E-1,3.648708463E-1,-2.682746351E-1
4.602456198E0,1.849556565E-1,2.909026146E-1,-1.720937490E-1
4.619122136E0,2.219208628E-1,4.951166734E-2,-9.625596553E-2
4.635788073E0,2.694492936E-1,-1.416085958E-1,-8.974286169E-2
4.652454011E0,3.501360416E-1,-4.463759810E-2,-1.164557859E-1
4.669119948E0,3.741517365E-1,2.505832314E-1,-1.362428665E-1
4.685785886E0,3.403065205E-1,2.757303119E-1,-1.440173984E-1
4.702451823E0,2.725144923E-1,1.549467593E-1,-1.625767350E-1
4.719117761E0,2.248412967E-1,7.991293818E-2,-1.663230360E-1
4.735783698E0,2.135445774E-1,2.075259835E-1,-9.889870137E-2
4.752449636E0,2.613744736E-1,3.577797115E-1,3.939187527E-2
4.769115573E0,3.370983899E-1,3.208507895E-1,1.286019683E-1
4.785781511E0,4.346997738E-1,1.356875002E-1,1.697149277E-1
4.802447448E0,5.259241462E-1,-1.275345087E-1,2.315918207E-1
4.819113386E0,5.307797790E-1,-4.283024669E-1,2.414646745E-1
4.835779323E0,3.756212592E-1,-6.802704334E-1,1.842436194E-1
4.852445261E0,2.000102401E-1,-7.494611740E-1,9.968334436E-2
4.869111198E0,1.483346969E-1,-5.877074599E-1,4.163118452E-2
4.885777136E0,1.724091470E-1,-3.226069212E-1,4.589384049E-2
4.902443073E0,1.991104484E-1,-1.581155956E-1,7.629945874E-2
4.919109011E0,3.279613853E-1,-2.068980783E-1,-5.350690335E-3
4.935774948E0,5.214872360E-1,-7.093120217E-1,-2.212368250E-1
4.952440886E0,3.979317546E-1,-1.526967764E0,-3.746409118E-1
4.969106823E0,-1.713513210E-2,-1.813973188E0,-4.650188088E-1
4.985772761E0,-3.206325173E-1,-1.544436097E0,-4.698125124E-1
5.002438698E0,-2.567037642E-1,-1.101664782E0,-4.290479720E-1
5.019104636E0,1.236845702E-1,-6.376459599E-1,-4.382193685E-1
5.035770573E0,5.644801259E-1,-2.581824064E-1,-4.661176205E-1
5.052436511E0,7.627599835E-1,-4.501510039E-2,-4.587153494E-1
5.069102448E0,6.945464611E-1,1.470579673E-2,-3.855619729E-1
5.085768386E0,5.192747712E-1,3.636096045E-2,-2.779387832E-1
5.102434323E0,4.109002352E-1,5.972921103E-2,-1.624540687E-1
5.119100261E0,4.790824950E-1,8.960237354E-2,-3.801164031E-2
5.135766198E0,6.280462146E-1,9.344799072E-2,4.510599375E-2
5.152432136E0,7.059640288E-1,1.216074526E-1,7.964868844E-2
5.169098073E0,6.598051190E-1,8.612732589E-2,5.370207876E-2
5.185764011E0,6.029688716E-1,2.732946165E-2,-1.960544661E-2
5.202429948E0,5.747918487E-1,1.308455467E-1,-1.006004885E-1
5.219095886E0,5.337891579E-1,2.401238829E-1,-1.763322949E-1
5.235761823E0,4.743903875E-1,2.219872326E-1,-2.645258009E-1
5.252427761E0,4.516687691E-1,1.574245989E-1,-3.373906314E-1
5.269093698E0,4.588382840E-1,8.020168170E-3,-3.583307564E-1
5.285759636E0,4.907753766E-1,-9.208922088E-2,-3.282328248E-1
5.302425573E0,4.935475588E-1,2.643230744E-2,-2.321507931E-1
5.319091511E0,4.748031199E-1,3.013140559E-1,-1.085311994E-1
5.335757448E0,4.554167092E-1,5.974662900E-1,3.258888796E-2
5.352423386E0,3.456219733E-1,7.526867390E-1,2.523231506E-1
5.369089323E0,4.172064364E-1,4.914300442E-1,2.684853077E-1
5.385755261E0,6.564511657E-1,4.692021757E-2,9.513220191E-2
5.402421198E0,7.479918003E-1,-2.209410965E-1,-1.091262028E-1
5.419087136E0,6.233271956E-1,-2.052396387E-1,-2.323787510E-1
5.435753073E0,4.112311602E-1,-5.372814089E-2,-2.806945741E-1
5.452419011E0,2.019177377E-1,-1.186752226E-3,-2.885194123E-1
5.469084948E0,1.244255230E-1,-6.547300518E-2,-2.461566031E-1
5.485750886E0,1.817118824E-1,-8.476571739E-2,-2.115514278E-1
5.502416823E0,2.440367341E-1,3.702107351E-3,-1.950454712E-1
5.519082761E0,2.621743679E-1,1.021959931E-1,-1.460954845E-1
5.535748698E0,2.628896534E-1,1.498018056E-1,-1.180304214E-1
5.552414636E0,2.811580598E-1,1.357863694E-1,-1.823716462E-1
5.569080573E0,2.689236999E-1,8.213583380E-2,-2.770372331E-1
5.585746511E0,1.725626737E-1,-5.345356837E-2,-3.183937669E-1
5.602412448E0,-5.521046743E-2,-2.349434346E-1,-3.423703313E-1
5.619078386E0,-4.080571830E-1,-2.417954952E-1,-3.641969860E-1
5.635744323E0,-8.306230903E-1,4.512245953E-2,-2.971454561E-1
5.652410261E0,-1.221269846E0,3.173726797E-1,-8.280508220E-2
5.669076198E0,-1.651273608E0,3.447721899E-1,1.817120910E-1
5.685742136E0,-2.109867811E0,9.158402681E-2,3.443924487E-1
5.702408073E0,-2.621549129E0,-1.863821447E-1,3.962596357E-1
5.719074011E0,-3.174776554E0,-1.476485282E-1,4.169281423E-1
5.735739948E0,-3.530923605E0,1.565994918E-1,5.703514218E-1
5.752405886E0,-3.347289085E0,5.883671641E-1,8.984208107E-1
5.769071823E0,-2.826392174E0,9.989767671E-1,1.353019357E0
5.785737761E0,-2.398894787E0,9.270465970E-1,1.728818178E0
5.802403698E0,-2.159669399E0,1.667345315E-1,1.754250646E0
5.819069636E0,-1.898841619E0,-1.029157162E0,1.421097636E0
5.835735573E0,-1.470309377E0,-1.571809888E0,1.051766992E0
5.852401511E0,-9.464690685E-1,-9.239459634E-1,7.946537733E-1
5.869067448E0,-4.168579280E-1,5.556693077E-1,6.571577191E-1
5.885733386E0,-1.077600792E-1,1.751603246E0,6.869770288E-1
5.902399323E0,-2.611746639E-2,2.154062986E0,7.579470277E-1
5.919065261E0,2.132223994E-1,1.951586366E0,7.352367640E-1
5.935731198E0,3.952845335E-1,1.008633852E0,7.429134846E-1
5.952397136E0,-2.365060449E-1,1.043664385E-2,9.762948155E-1
5.969063073E0,-1.220074058E0,2.090506405E-1,1.299350262E0
5.985729011E0,-1.875006914E0,1.050504804E0,1.506724477E0
6.002394948E0,-2.147350311E0,1.607481718E0,1.519630551E0
6.019060886E0,-2.089348316E0,1.434554815E0,1.416988492E0
6.035726823E0,-1.741811514E0,6.911347508E-1,1.282625794E0
6.052392761E0,-1.252342343E0,-2.739236876E-2,1.197430730E0
6.069058698E0,-7.972102165E-1,-4.950298965E-1,1.195239782E0
6.085724636E0,-5.621560216E-1,-5.866295695E-1,1.187623382E0
6.102390573E0,-5.902075171E-1,-2.268758863E-1,1.127744079E0
6.119056511E0,-6.724482179E-1,4.179027677E-1,1.086035609E0
6.135722448E0,-6.670074463E-1,9.904198050E-1,1.064911723E0
6.152388386E0,-5.942582488E-1,1.178822875E0,9.835913777E-1
6.169054323E0,-4.566960931E-1,9.466194510E-1,8.150171041E-1
6.185720261E0,-2.495141178E-1,6.887958050E-1,6.193597913E-1
6.202386198E0,-5.881467834E-3,5.023819208E-1,5.176476836E-1
6.219052136E0,1.901658475E-1,1.897197664E-1,5.118445158E-1
6.235718073E0,2.748239040E-1,-1.037837714E-1,5.151863694E-1
6.252384011E0,3.931676745E-1,-1.332551986E-1,4.697569907E-1
6.269049948E0,5.162200332E-1,-4.256458208E-2,4.060783982E-1
6.285715886E0,5.931127667E-1,8.728572726E-2,3.446095884E-1
6.302381823E0,6.812428832E-1,1.347389668E-1,2.401112616E-1
6.319047761E0,8.071536422E-1,1.036174074E-1,1.016973853E-1
6.335713698E0,9.599069953E-1,1.023650244E-1,-3.796287626E-2
6.352379636E0,1.106970072E0,8.454118669E-2,-1.294180751E-1
6.369045573E0,1.189494252E0,-1.145937294E-1,-1.444874406E-1
6.385711511E0,1.044884443E0,-5.194244981E-1,-5.080690980E-2
6.402377448E0,8.128599524E-1,-5.759223104E-1,1.802012324E-1
6.419043386E0,6.613295674E-1,-2.595037520E-1,4.275609851E-1
6.435709323E0,7.225849032E-1,1.868581921E-1,4.678858221E-1
6.452375261E0,8.957117200E-1,4.929150343E-1,2.137591243E-1
6.469041198E0,1.054340839E0,-1.314474642E-1,-1.459403038E-1
6.485707136E0,1.200527072E0,-6.525614262E-1,-5.501647592E-1
6.502373073E0,1.339794874E0,-4.122451842E-1,-9.440490603E-1
6.519039011E0,1.363557458E0,6.394976750E-3,-1.154889226E0
6.535704948E0,1.241329789E0,1.803458631E-1,-1.097708225E0
6.552370886E0,1.124949813E0,2.386060059E-1,-7.932855487E-1
6.569036823E0,1.084780693E0,1.171092838E-1,-4.359563291E-1
6.585702761E0,1.127936125E0,-2.691093087E-1,-2.060118616E-1
6.602368698E0,1.193653703E0,-7.037572265E-1,-1.569291353E-1
6.619034636E0,1.156426787E0,-9.758645892E-1,-3.166670203E-1
6.635700573E0,9.482310414E-1,-9.464245439E-1,-6.334220767E-1
6.652366511E0,6.780489087E-1,-7.367463112E-1,-9.521135688E-1
6.669032448E0,4.946184456E-1,-6.170371175E-1,-1.124359488E0
6.685698386E0,4.431152344E-1,-5.791276097E-1,-1.107728243E0
6.702364323E0,5.200890899E-1,-5.089173913E-1,-9.785558581E-1
6.719030261E0,6.145471334E-1,-3.718901277E-1,-8.758562803E-1
6.735696198E0,5.937516689E-1,-2.505290806E-1,-8.828169703E-1
6.752362136E0,4.783288240E-1,-2.378237396E-1,-9.222709537E-1
6.769028073E0,4.153006375E-1,-3.598026633E-1,-9.292978048E-1
6.785694011E0,4.519115984E-1,-4.960046709E-1,-8.884593248E-1
6.802359948E0,5.162422061E-1,-4.636286497E-1,-8.026921153E-1
6.819025886E0,5.334277749E-1,-2.216887921E-1,-6.718147993E-1
6.835691823E0,5.465121865E-1,1.815016381E-3,-4.837949276E-1
6.852357761E0,6.175119877E-1,-4.210165888E-2,-3.008370697E-1
6.869023698E0,7.057838440E-1,-2.864042819E-1,-1.938635409E-1
6.885689636E0,7.605721951E-1,-5.678315163E-1,-1.572372913E-1
6.902355573E0,7.714884281E-1,-7.900319695E-1,-1.528973877E-1
6.919021511E0,7.179490924E-1,-9.628804326E-1,-1.894592047E-1
6.935687448E0,6.316655278E-1,-1.111773610E0,-2.521725595E-1
6.952353386E0,5.303672552E-1,-1.009377241E0,-3.217751086E-1
6.969019323E0,4.589182734E-1,-7.044670582E-1,-3.500263393E-1
6.985685261E0,4.503399432E-1,-4.496953487E-1,-3.346136212E-1
7.002351198E0,4.358426929E-1,-2.973265350E-1,-3.117084801E-1
7.019017136E0,4.316802323E-1,-2.183949053E-1,-3.284559548E-1
7.035683073E0,4.090015292E-1,-2.206927836E-1,-4.152189791E-1
7.052349011E0,3.130409122E-1,-2.730927765E-1,-5.242931843E-1
7.069014948E0,1.823250055E-1,-2.444544435E-1,-5.977242589E-1
7.085680886E0,1.488257647E-1,-1.370376796E-1,-5.991657972E-1
7.102346823E0,3.015381694E-1,-7.277417183E-2,-5.318057537E-1
7.119012761E0,4.995745420E-1,-1.281834692E-1,-4.738823175E-1
7.135678698E0,5.716795325E-1,-1.134665608E-1,-4.650198817E-1
7.152344636E0,5.564594269E-1,-7.050282788E-3,-4.684612751E-1
7.169010573E0,4.969154894E-1,-1.411829889E-2,-4.724068642E-1
7.185676511E0,3.908233643E-1,-1.566520780E-1,-4.811000824E-1
7.202342448E0,2.495188713E-1,-3.847752213E-1,-4.803858995E-1
7.219008386E0,3.204762936E-2,-6.508929133E-1,-4.467343390E-1
7.235674323E0,-2.989736199E-1,-8.730592728E-1,-3.538519442E-1
7.252340261E0,-5.973575711E-1,-1.073501825E0,-2.280285060E-1
7.269006198E0,-6.750664115E-1,-1.154082656E0,-1.036945209E-1
7.285672136E0,-6.075319648E-1,-9.004477859E-1,4.342498258E-2
7.302338073E0,-5.843374729E-1,-3.256144524E-1,2.622256875E-1
7.319004011E0,-5.983279347E-1,3.004024029E-1,5.004584193E-1
7.335669948E0,-6.767829061E-1,6.633579135E-1,6.674564481E-1
7.352335886E0,-7.814608216E-1,5.795891881E-1,8.005779982E-1
7.369001823E0,-7.928765416E-1,1.878422052E-1,9.226279259E-1
7.385667761E0,-8.305502534E-1,-3.252597153E-2,9.773839712E-1
7.402333698E0,-1.161822915E0,9.482285380E-2,8.749025464E-1
7.418999636E0,-1.625234842E0,1.068443507E-1,6.335330009E-1
7.435665573E0,-2.003830671E0,8.303153515E-2,3.524816334E-1
7.452331511E0,-2.335805893E0,1.203945950E-1,1.091361940E-1
7.468997448E0,-2.627971649E0,2.112718672E-1,5.527599528E-2
7.485663386E0,-2.790199757E0,5.496388078E-1,2.331767976E-1
7.502329323E0,-2.747436285E0,8.970448375E-1,5.553265214E-1
7.518995261E0,-2.389348030E0,1.191377044E0,9.012008309E-1
7.535661198E0,-1.830424070E0,1.404573679E0,1.126345277E0
7.552327136E0,-1.362458825E0,1.125786901E0,1.149168730E0
7.568993073E0,-1.019113183E0,4.201824069E-1,1.016785860E0
7.585659011E0,-7.614958882E-1,-4.608336687E-1,8.720343113E-1
7.602324948E0,-6.568502188E-1,-1.090051889E0,7.527594566E-1
7.618990886E0,-6.307893395E-1,-1.186749339E0,6.828029156E-1
7.635656823E0,-5.023751855E-1,-7.082365155E-1,7.214434743E-1
7.652322761E0,-2.692836523E-1,1.586982310E-1,8.293703198E-1
7.668988698E0,-5.009758472E-2,8.875534534E-1,8.935230970E-1
7.685654636E0,7.558362186E-2,1.190284371E0,8.454732895E-1
7.702320573E0,1.656570882E-1,1.190674305E0,6.815260053E-1
7.718986511E0,2.206502706E-1,8.222708106E-1,4.744591415E-1
7.735652448E0,-2.485325933E-2,-3.397003710E-1,3.642724454E-1
7.752318386E0,-4.168961048E-1,-9.931833744E-1,4.152896702E-1
7.768984323E0,-5.939386487E-1,-6.960232258E-1,5.475474000E-1
7.785650261E0,-5.618386269E-1,-3.990833089E-2,6.660297513E-1
7.802316198E0,-4.630609453E-1,5.115693212E-1,6.900365353E-1
7.818982136E0,-3.689180017E-1,7.441238761E-1,6.204169393E-1
7.835648073E0,-2.728566527E-1,6.644286513E-1,5.023815632E-1
7.852314011E0,-1.136207953E-1,5.221460462E-1,3.564605117E-1
7.868979948E0,1.605567038E-1,4.978600144E-1,2.327621579E-1
7.885645886E0,4.880922139E-1,5.345855355E-1,1.364697367E-1
7.902311823E0,7.780539989E-1,5.047508478E-1,5.101332814E-2
7.918977761E0,1.005333304E0,3.233748376E-1,-4.302451760E-2
7.935643698E0,1.078938842E0,-1.202408895E-1,-1.010999754E-1
7.952309636E0,9.315955639E-1,-4.878925681E-1,3.510076925E-2
7.968975573E0,8.086683750E-1,-1.326112598E-1,2.139374018E-1
7.985641511E0,9.029777050E-1,4.560029209E-1,1.115014106E-1
8.002307448E0,1.117826462E0,6.484205127E-1,-1.163964495E-1
8.018973386E0,1.146980405E0,4.485864341E-1,-3.209344447E-1
8.035639323E0,9.281361699E-1,1.639215201E-1,-4.974601865E-1
8.052305261E0,7.769259810E-1,5.192419142E-2,-5.729354620E-1
8.068971198E0,8.164970875E-1,1.734771766E-2,-5.104322433E-1
8.085637136E0,8.185119629E-1,1.684863269E-1,-3.866161704E-1
8.102303073E0,7.427688241E-1,3.251124620E-1,-2.758447826E-1
8.118969011E0,6.735317707E-1,3.492083549E-1,-1.466846168E-1
8.135634948E0,6.452638507E-1,2.596487701E-1,-6.654337049E-2
8.152300886E0,5.829427838E-1,1.764964759E-1,-9.938883036E-2
8.168966823E0,4.640627205E-1,1.848113686E-1,-1.807493865E-1
8.185632761E0,4.218653738E-1,1.717338264E-1,-2.154815495E-1
8.202298698E0,5.462592244E-1,6.763032824E-2,-1.892471611E-1
8.218964636E0,7.682616115E-1,-8.100225776E-2,-1.508872807E-1
8.235630573E0,9.515848160E-1,-1.728034168E-1,-1.868556738E-1
8.252296511E0,1.052234292E0,-2.543537021E-1,-3.025041521E-1
8.268962448E0,1.098732829E0,-4.143413305E-1,-4.086799026E-1
8.285628386E0,1.097746134E0,-6.094728708E-1,-4.671114683E-1
8.302294323E0,1.053314447E0,-7.072835565E-1,-4.922370315E-1
8.318960261E0,9.768494964E-1,-7.086169720E-1,-4.993233085E-1
8.335626198E0,9.227902889E-1,-7.500283122E-1,-4.989752769E-1
8.352292136E0,8.793833852E-1,-8.581953645E-1,-4.955580831E-1
8.368958073E0,7.914809585E-1,-8.985156417E-1,-5.108105540E-1
8.385624011E0,6.661605835E-1,-8.006443381E-1,-5.282306671E-1
8.402289948E0,5.646903515E-1,-6.465818882E-1,-5.009652972E-1
8.418955886E0,5.122098327E-1,-5.372816324E-1,-4.113725126E-1
8.435621823E0,4.821572304E-1,-4.828490615E-1,-3.217863739E-1
8.452287761E0,4.574739337E-1,-4.774810076E-1,-2.668439746E-1
8.468953698E0,4.226252437E-1,-4.272452593E-1,-2.237571776E-1
8.485619636E0,4.276208878E-1,-2.781315446E-1,-1.822981834E-1
8.502285573E0,5.265708566E-1,-7.553417236E-2,-1.420567036E-1
8.518951511E0,6.603946090E-1,5.902398378E-2,-1.156991646E-1
8.535617448E0,7.249423862E-1,9.400460869E-2,-1.355648637E-1
8.552283386E0,6.712086797E-1,7.213964313E-2,-1.917955875E-1
8.568949323E0,5.258178115E-1,-6.811864674E-2,-2.560373247E-1
8.585615261E0,3.680832684E-1,-2.865484059E-1,-2.920070589E-1
8.602281198E0,3.137760460E-1,-2.979947627E-1,-3.095950484E-1
8.618947136E0,3.491856158E-1,-1.337496936E-1,-3.765017092E-1
8.635613073E0,3.263893723E-1,-1.389868706E-1,-4.483774602E-1
8.652279011E0,2.629096508E-1,-3.225889206E-1,-4.735149741E-1
8.668944948E0,2.945393622E-1,-4.778535366E-1,-4.291329682E-1
8.685610886E0,3.664504588E-1,-5.594245791E-1,-3.520999253E-1
8.702276823E0,3.181030750E-1,-5.846648812E-1,-3.245583475E-1
8.718942761E0,1.635597497E-1,-5.766768456E-1,-3.322848678E-1
8.735608698E0,-1.323367357E-1,-6.835253239E-1,-3.571478724E-1
8.752274636E0,-4.878391027E-1,-9.073281884E-1,-3.702595830E-1
8.768940573E0,-6.799435616E-1,-1.134254813E0,-3.576285243E-1
8.785606511E0,-6.061958671E-1,-1.131602526E0,-2.726994157E-1
8.802272448E0,-4.495986402E-1,-9.946960211E-1,-1.228705570E-1
8.818938386E0,-3.771734238E-1,-8.795251250E-1,-1.562552527E-2
8.835604323E0,-3.890410662E-1,-8.411342502E-1,-3.640668094E-2
8.852270261E0,-4.548090100E-1,-8.145709038E-1,-7.632726431E-2
8.868936198E0,-6.075417399E-1,-6.200113893E-1,8.303843439E-3
8.885602136E0,-7.551150918E-1,-3.287172616E-1,3.017494082E-1
8.902268073E0,-8.597069383E-1,-6.813254952E-2,6.280872226E-1
8.918934011E0,-1.131500363E0,2.744477391E-1,6.985862255E-1
8.935599948E0,-1.602809548E0,7.493843436E-1,6.213580370E-1
8.952265886E0,-2.009054899E0,1.094948888E0,5.770235658E-1
8.968931823E0,-2.263058662E0,1.275127888E0,5.493144989E-1
8.985597761E0,-2.385942936E0,1.411585450E0,5.035544634E-1
9.002263698E0,-2.289857626E0,1.342796206E0,4.637168348E-1
9.018929636E0,-1.964195132E0,8.272623420E-1,4.433283508E-1
9.035595573E0,-1.600820780E0,-1.377915591E-2,4.581488073E-1
9.052261511E0,-1.384022832E0,-7.110188007E-1,5.036131740E-1
9.068927448E0,-1.300729513E0,-7.748725414E-1,6.085505486E-1
9.085593386E0,-1.290986657E0,-3.367319405E-1,7.539418340E-1
9.102259323E0,-1.332960725E0,1.294063479E-1,8.586572409E-1
9.118925261E0,-1.269610286E0,3.433290124E-1,8.985829353E-1
9.135591198E0,-9.010569453E-1,2.688874602E-1,8.577809930E-1
9.152257136E0,-2.931942940E-1,-5.478907842E-3,7.484526634E-1
9.168923073E0,2.000639141E-1,-9.472429752E-2,6.298299432E-1
9.185589011E0,3.075081706E-1,8.239526302E-2,6.105605364E-1
9.202254948E0,1.602795422E-1,3.422758281E-1,6.979587674E-1
9.218920886E0,-1.661022753E-2,6.258385777E-1,8.074064255E-1
9.235586823E0,-1.571032703E-1,5.231223702E-1,8.429234028E-1
9.252252761E0,-4.262732267E-1,-3.971962035E-1,7.632212639E-1
9.268918698E0,-6.816750169E-1,-9.244810939E-1,6.884256005E-1
9.285584636E0,-7.053025365E-1,-8.039662838E-1,7.280831337E-1
9.302250573E0,-5.527815819E-1,-4.045026302E-1,8.337200880E-1
9.318916511E0,-3.653421998E-1,1.587277651E-2,9.018969536E-1
9.335582448E0,-2.485033125E-1,2.323507965E-1,8.912719488E-1
9.352248386E0,-1.968431175E-1,1.697852910E-1,7.793251276E-1
9.368914323E0,-1.229325533E-1,1.125655174E-1,6.154126525E-1
9.385580261E0,2.965132520E-2,2.471689731E-1,4.427330196E-1
9.402246198E0,2.457034737E-1,4.606835544E-1,2.642433643E-1
9.418912136E0,5.402204394E-1,7.104062438E-1,8.898403496E-2
9.435578073E0,8.901128173E-1,9.988048673E-1,-9.328136593E-2
9.452244011E0,1.176302791E0,1.121676087E0,-2.273766398E-1
9.468909948E0,1.230433345E0,9.272254109E-1,-2.759456933E-1
9.485575886E0,8.994469047E-1,4.844222069E-1,-1.530530751E-1
9.502241823E0,5.183703899E-1,1.003788486E-1,9.077379107E-2
9.518907761E0,6.613045335E-1,-5.469998717E-1,1.216195673E-1
9.535573698E0,1.119571447E0,2.958759069E-1,-1.885537058E-2
9.552239636E0,1.058466315E0,1.356871724E0,-2.225607038E-1
9.568905573E0,6.225120425E-1,1.326100945E0,-4.698959589E-1
9.585571511E0,1.784420907E-1,7.142447829E-1,-6.332384944E-1
9.602237448E0,1.835431010E-1,2.216937095E-1,-5.662473440E-1
9.618903386E0,5.425440073E-1,1.937601417E-1,-4.275885522E-1
9.635569323E0,7.582926154E-1,5.200889111E-1,-3.550391793E-1
9.652235261E0,6.288608909E-1,7.379170060E-1,-2.455016375E-1
9.668901198E0,4.277025461E-1,5.132986903E-1,-6.756590307E-2
9.685567136E0,3.853278458E-1,1.562122554E-1,6.485247612E-2
9.702233073E0,5.499622226E-1,-8.194696903E-2,8.758281171E-2
9.718899011E0,7.932410240E-1,-1.464767009E-1,6.620740891E-2
9.735564948E0,9.309363365E-1,-5.487544835E-2,3.610267863E-2
9.752230886E0,9.410704970E-1,-1.974998601E-2,7.738286629E-3
9.768896823E0,9.312437177E-1,-7.347775996E-2,-4.008889198E-2
9.785562761E0,9.644310474E-1,-3.754558787E-2,-1.131654754E-1
9.802228698E0,1.053694367E0,8.499241620E-2,-1.786645651E-1
9.818894636E0,1.158917308E0,1.849537939E-1,-2.468932569E-1
9.835560573E0,1.184085369E0,1.122145131E-1,-3.699072897E-1
9.852226511E0,1.098267436E0,-1.639888585E-1,-4.792340994E-1
9.868892448E0,9.517876506E-1,-4.425707161E-1,-5.123916864E-1
9.885558386E0,8.343465328E-1,-5.233637094E-1,-5.048405528E-1
9.902224323E0,7.871037126E-1,-4.454962611E-1,-4.814476967E-1
9.918890261E0,7.531428337E-1,-3.672271967E-1,-4.285551608E-1
9.935556198E0,6.621126533E-1,-3.319743872E-1,-3.423201442E-1
9.952222136E0,5.771420598E-1,-2.209896892E-1,-2.456876338E-1
9.968888073E0,5.704317093E-1,-9.374920279E-3,-1.466999054E-1
9.985554011E0,6.148208380E-1,1.426635236E-1,-4.786921293E-2
1.000221995E1,6.456193328E-1,1.498548836E-1,3.223494440E-2
1.001888589E1,6.662683487E-1,6.853824854E-2,8.830145001E-2
1.003555182E1,6.830701828E-1,5.155086145E-2,1.051054597E-1
1.005221776E1,7.448275089E-1,1.148012653E-1,9.715598077E-2
1.006888370E1,8.450746536E-1,1.959311664E-1,8.076233417E-2
1.008554964E1,9.211819172E-1,1.516107768E-1,4.408544675E-2
1.010221557E1,8.892912865E-1,-4.575895891E-2,-2.678333223E-2
1.011888151E1,7.682366371E-1,-2.129864395E-1,-1.153027937E-1
1.013554745E1,6.273775697E-1,-2.074845135E-1,-2.044482231E-1
1.015221339E1,5.161817670E-1,-8.125469089E-2,-3.014305532E-1
1.016887932E1,4.305455685E-1,2.374727465E-2,-4.091766179E-1
1.018554526E1,3.334807754E-1,4.256939515E-2,-5.146825314E-1
1.020221120E1,2.345744520E-1,-4.007806629E-2,-5.858554840E-1
1.021887714E1,1.919341981E-1,-1.443106085E-1,-5.929951668E-1
1.023554307E1,2.170246243E-1,-2.047532499E-1,-5.446238518E-1
1.025220901E1,2.897858918E-1,-2.165195495E-1,-4.753491879E-1
1.026887495E1,3.965081275E-1,-2.326429933E-1,-4.132201076E-1
1.028554089E1,4.835818112E-1,-2.476431131E-1,-3.670409620E-1
1.030220682E1,4.970508218E-1,-1.791714579E-1,-3.567886949E-1
1.031887276E1,4.516982138E-1,1.165333986E-1,-3.736961782E-1
1.033553870E1,4.142906070E-1,5.087575316E-1,-3.966172040E-1
1.035220464E1,3.733625412E-1,7.014319897E-1,-4.428037107E-1
1.036887057E1,2.147166133E-1,6.231089830E-1,-4.685465693E-1
1.038553651E1,-9.597945958E-2,3.241487145E-1,-3.978906572E-1
1.040220245E1,-5.026042461E-1,-3.879633173E-2,-2.553584874E-1
1.041886839E1,-8.271381855E-1,-2.378678620E-1,-1.333687007E-1
1.043553432E1,-9.493584037E-1,-2.828144133E-1,-6.553089619E-2
1.045220026E1,-8.689689040E-1,-4.638527036E-1,-2.154964954E-3
1.046886620E1,-6.746115685E-1,-6.737927794E-1,3.791616485E-2
1.048553214E1,-4.605546892E-1,-6.265568733E-1,4.326063395E-2
1.050219807E1,-2.977907360E-1,-1.065975055E-1,8.540591598E-2
1.051886401E1,-2.160755992E-1,7.129154801E-1,3.055574000E-1
1.053552995E1,-2.162973285E-1,1.390125036E0,6.979057193E-1
1.055219589E1,-4.013446271E-1,1.771082997E0,1.002119541E0
1.056886182E1,-7.948610783E-1,1.954801202E0,1.023062468E0
1.058552776E1,-1.219415188E0,1.931071043E0,8.230648637E-1
1.060219370E1,-1.474806905E0,1.574360132E0,5.593548417E-1
1.061885964E1,-1.548272848E0,8.941853046E-1,3.571606278E-1
1.063552557E1,-1.735953212E0,2.287483960E-1,3.175435960E-1
1.065219151E1,-2.233929157E0,9.967682511E-2,4.466856122E-1
1.066885745E1,-2.533009291E0,4.664716423E-1,5.516492724E-1
1.068552339E1,-2.448370934E0,1.039675355E0,5.611738563E-1
1.070218932E1,-2.111824751E0,1.532427669E0,4.867792726E-1
1.071885526E1,-1.612433314E0,1.731109381E0,4.439629614E-1
1.073552120E1,-1.085597634E0,1.526361346E0,5.125321746E-1
1.075218714E1,-6.697487831E-1,1.089451194E0,6.049106717E-1
1.076885307E1,-4.438398480E-1,6.362954974E-1,6.224856377E-1
1.078551901E1,-3.594848812E-1,2.719331980E-1,5.786260962E-1
1.080218495E1,-3.741001487E-1,7.969226688E-2,4.984173179E-1
1.081885089E1,-4.219215512E-1,1.007539406E-1,4.324791729E-1
1.083551682E1,-2.967174053E-1,1.986780018E-1,4.703285098E-1
1.085218276E1,2.336067855E-1,4.164089561E-1,6.395734549E-1
1.086884870E1,8.193824887E-1,8.585033417E-1,7.786993980E-1
1.088551464E1,1.105916619E0,1.228844643E0,8.123133779E-1
1.090218057E1,1.080506206E0,1.321365595E0,7.719762921E-1
1.091884651E1,9.301629663E-1,1.071256161E0,7.191999555E-1
1.093551245E1,7.975406647E-1,6.075563431E-1,6.722161770E-1
1.095217839E1,6.775813103E-1,2.617569864E-1,5.868120193E-1
1.096884432E1,5.569908023E-1,2.064653337E-1,4.456602037E-1
1.098551026E1,4.339719117E-1,4.327946305E-1,2.849105299E-1
1.100217620E1,3.586055636E-1,8.324307799E-1,1.528989524E-1
1.101884214E1,3.657454252E-1,1.245638251E0,6.770137697E-2
1.103550807E1,4.028815329E-1,1.506529570E0,5.050069839E-2
1.105217401E1,4.669726193E-1,1.577191114E0,1.385594159E-1
1.106883995E1,4.952336550E-1,1.525993109E0,2.903508246E-1
1.108550589E1,3.623153269E-1,1.374192834E0,4.316903949E-1
1.110217182E1,8.701442927E-2,1.114861608E0,5.144960880E-1
1.111883776E1,-1.438050866E-1,7.612764835E-1,5.192393661E-1
1.113550370E1,-1.913401186E-1,4.584826231E-1,4.502957463E-1
1.115216964E1,-7.244843245E-2,3.796856105E-1,3.182497025E-1
1.116883557E1,1.797493249E-1,4.582189322E-1,2.099648118E-1
1.118550151E1,4.946087599E-1,4.609472454E-1,1.737600267E-1
1.120216745E1,7.210755348E-1,4.008112550E-1,1.268838197E-1
1.121883339E1,7.732077241E-1,3.834186792E-1,7.234829664E-2
1.123549932E1,6.546836495E-1,5.421547890E-1,3.041611612E-2
1.125216526E1,4.027746916E-1,9.010481238E-1,-5.555685610E-3
1.126883120E1,1.918437779E-1,1.258340478E0,1.723883487E-2
1.128549714E1,1.350111961E-1,1.493284345E0,1.400697380E-1
1.130216307E1,1.546099335E-1,1.456360459E0,2.849738002E-1
1.131882901E1,7.967367768E-2,1.080763459E0,4.312298000E-1
1.133549495E1,-1.438791156E-1,5.570340753E-1,5.522398949E-1
1.135216089E1,-3.404972553E-1,4.673984274E-2,5.734856129E-1
1.136882682E1,-2.588471174E-1,-4.236116707E-1,4.215871394E-1
1.138549276E1,5.765184388E-2,-6.569387913E-1,1.454323977E-1
1.140215870E1,4.551736116E-1,-4.733623266E-1,-8.699069917E-2
1.141882464E1,7.706301212E-1,-8.906274289E-2,-1.189745739E-1
1.143549057E1,8.273456693E-1,3.486240506E-1,4.984743521E-2
1.145215651E1,6.517489552E-1,9.360066056E-1,2.438033223E-1
1.146882245E1,4.299290180E-1,1.483064771E0,2.629886270E-1
1.148548839E1,2.895499766E-1,1.698145509E0,1.428388506E-1
1.150215432E1,2.303333431E-1,1.578839898E0,5.603198335E-2
1.151882026E1,3.356534541E-1,1.276372671E0,1.114055328E-2
1.153548620E1,6.884200573E-1,1.097841501E0,-5.424527079E-2
1.155215214E1,9.303238392E-1,1.103660226E0,-6.057757139E-2
1.156881807E1,8.706558347E-1,1.052144170E0,3.492648527E-2
1.158548401E1,6.481383443E-1,8.990011811E-1,1.550844610E-1
1.160214995E1,4.700568914E-1,7.950982451E-1,1.974588335E-1
1.161881589E1,4.750905037E-1,7.653374672E-1,1.389915347E-1
1.163548182E1,6.267671585E-1,7.394494414E-1,4.182228446E-2
1.165214776E1,7.778778076E-1,7.746560574E-1,-4.552115500E-2
1.166881370E1,8.250415325E-1,9.330604076E-1,-1.038505659E-1
1.168547964E1,7.935779095E-1,1.086693406E0,-1.478003561E-1
1.170214557E1,7.185060382E-1,1.077774882E0,-1.762893498E-1
1.171881151E1,5.995178819E-1,9.299692512E-1,-1.808053255E-1
1.173547745E1,4.520359635E-1,7.639864087E-1,-1.394754648E-1
1.175214339E1,3.435311615E-1,6.718367934E-1,-4.160301387E-2
1.176880932E1,3.068934083E-1,6.482971907E-1,3.887289390E-2
1.178547526E1,3.209819198E-1,5.953054428E-1,2.105313167E-2
1.180214120E1,3.473786712E-1,4.268008471E-1,-5.787376314E-2
1.181880714E1,3.829066157E-1,1.696430892E-1,-1.225775704E-1
1.183547307E1,4.191555083E-1,-4.817235749E-3,-1.498233974E-1
1.185213901E1,4.318208992E-1,-1.037955657E-2,-1.677504778E-1
1.186880495E1,3.583340049E-1,8.759815246E-2,-2.132768333E-1
1.188547089E1,1.095384732E-1,2.953724563E-1,-2.858550847E-1
1.190213682E1,-2.496682554E-1,5.959390402E-1,-3.289229572E-1
1.191880276E1,-4.507446885E-1,7.440047860E-1,-3.063637614E-1
1.193546870E1,-5.036163330E-1,7.149868608E-1,-2.428353429E-1
1.195213464E1,-6.528725624E-1,6.911553741E-1,-1.398904622E-1
1.196880057E1,-8.987045884E-1,7.097681165E-1,-2.442129329E-2
1.198546651E1,-1.158685446E0,7.792428136E-1,7.426327467E-2
1.200213245E1,-1.373570085E0,8.829957843E-1,2.299497426E-1
1.201879839E1,-1.412324071E0,9.967637062E-1,4.610860944E-1
1.203546432E1,-1.278686166E0,1.110664248E0,6.626363993E-1
1.205213026E1,-1.178297281E0,1.106496692E0,7.818279266E-1
1.206879620E1,-1.256684184E0,9.256305099E-1,8.120954633E-1
1.208546214E1,-1.421700120E0,6.194580197E-1,7.438982129E-1
1.210212807E1,-1.551547170E0,1.820252687E-1,5.472105742E-1
1.211879401E1,-1.555956960E0,-2.307264656E-1,3.327428997E-1
1.213545995E1,-1.404442430E0,-3.498372138E-1,2.159121335E-1
1.215212589E1,-1.148512244E0,-7.901547849E-2,1.881317198E-1
1.216879182E1,-8.828043938E-1,4.166984260E-1,1.938372254E-1
1.218545776E1,-6.642658114E-1,9.198613763E-1,2.362912297E-1
1.220212370E1,-5.103314519E-1,1.304297686E0,3.197728693E-1
1.221878964E1,-3.681403100E-1,1.554770827E0,4.187074602E-1
1.223545557E1,-1.667191088E-1,1.649471045E0,5.042161345E-1
1.225212151E1,8.356729150E-2,1.593939662E0,5.550401211E-1
1.226878745E1,3.052278757E-1,1.368256927E0,5.542857647E-1
1.228545339E1,4.537701607E-1,1.064219356E0,5.252025723E-1
1.230211932E1,5.095458627E-1,8.154880404E-1,5.105049014E-1
1.231878526E1,4.657121897E-1,6.987348199E-1,5.394215584E-1
1.233545120E1,3.494867384E-1,7.544252872E-1,6.064002514E-1
1.235211714E1,2.016671598E-1,9.232358336E-1,6.639609933E-1
1.236878307E1,9.216775000E-2,1.049129367E0,6.746979952E-1
1.238544901E1,4.477005079E-2,1.159957647E0,6.346139312E-1
1.240211495E1,5.052655935E-2,1.340550661E0,5.972396135E-1
1.241878089E1,7.342673093E-2,1.562302351E0,6.250361204E-1
1.243544682E1,4.937659577E-2,1.666795969E0,6.998835206E-1
1.245211276E1,-3.635692224E-2,1.642815232E0,7.641728520E-1
1.246877870E1,-1.297308058E-1,1.612257242E0,7.808154821E-1
1.248544464E1,-1.683633775E-1,1.622719884E0,7.526775002E-1
1.250211057E1,-1.557662636E-1,1.619761229E0,7.048366666E-1
1.251877651E1,-1.238217950E-1,1.534352422E0,6.418699622E-1
1.253544245E1,-7.521925867E-2,1.421398282E0,5.920792222E-1
1.255210839E1,9.907206520E-3,1.407946706E0,5.849972367E-1
1.256877432E1,1.163396388E-1,1.517786741E0,6.131072640E-1
1.258544026E1,1.959009171E-1,1.624852300E0,6.852326393E-1
1.260210620E1,2.276668698E-1,1.682367206E0,7.926099896E-1
1.261877214E1,2.489494979E-1,1.711107016E0,8.861630559E-1
1.263543807E1,2.888941765E-1,1.743047476E0,9.256604314E-1
1.265210401E1,3.597183228E-1,1.814112544E0,9.313967824E-1
1.266876995E1,4.480054677E-1,1.896576285E0,9.332233667E-1
1.268543589E1,5.133553147E-1,1.931756854E0,9.373028278E-1
1.270210182E1,5.272097588E-1,1.857257485E0,9.377492666E-1
1.271876776E1,4.447415471E-1,1.648944259E0,9.060304761E-1
1.273543370E1,2.769541144E-1,1.372150779E0,8.126881123E-1
1.275209964E1,1.233978420E-1,1.183044672E0,6.808733940E-1
1.276876557E1,3.466792777E-2,1.124127507E0,5.697107911E-1
1.278543151E1,-1.145404950E-1,1.014223337E0,4.462580979E-1
1.280209745E1,-3.840851486E-1,8.605440259E-1,2.535187304E-1
1.281876339E1,-6.131543517E-1,7.142662406E-1,9.733092785E-2
1.283542932E1,-5.120778680E-1,6.752274036E-1,6.177172065E-2
1.285209526E1,2.426527068E-2,8.503293395E-1,1.949521303E-1
1.286876120E1,3.766240180E-1,1.265390396E0,2.628214955E-1
1.288542714E1,3.087471724E-1,1.688907385E0,2.392194867E-1
1.290209307E1,8.938439190E-2,1.661666751E0,2.681800127E-1
1.291875901E1,1.725427620E-2,1.044092774E0,3.462511301E-1
1.293542495E1,1.588579416E-1,3.586285710E-1,3.450889587E-1
1.295209089E1,2.808748484E-1,3.246434629E-1,2.136589289E-1
1.296875682E1,2.192522585E-1,9.028384686E-1,1.259624362E-1
1.298542276E1,1.366421580E-1,1.598421931E0,1.393363774E-1
1.300208870E1,3.538414836E-1,2.055977821E0,2.269827127E-1
1.301875464E1,9.346285462E-1,2.223241329E0,3.462072313E-1
1.303542057E1,1.280513167E0,2.203537464E0,3.622926772E-1
1.305208651E1,1.122076631E0,2.071182013E0,2.942999005E-1
1.306875245E1,7.340795994E-1,1.687023282E0,2.502775192E-1
1.308541839E1,4.562940001E-1,1.036803126E0,2.399143279E-1
1.310208432E1,4.211003184E-1,4.360669553E-1,2.110762596E-1
1.311875026E1,5.199796557E-1,1.713037491E-1,1.106827408E-1
1.313541620E1,6.058531404E-1,2.038865834E-1,-1.741211861E-2
1.315208214E1,6.242222190E-1,3.811246157E-1,-1.025691256E-1
1.316874807E1,6.493591070E-1,5.228672624E-1,-1.024988815E-1
1.318541401E1,7.338650823E-1,5.520054698E-1,-4.115058482E-2
1.320207995E1,8.176799417E-1,5.042966604E-1,-3.669161350E-3
1.321874589E1,8.193892837E-1,3.994705379E-1,-3.302586079E-2
1.323541182E1,7.036078572E-1,2.482509315E-1,-1.079178527E-1
1.325207776E1,5.168563724E-1,9.313854575E-2,-1.919537783E-1
1.326874370E1,3.706457019E-1,-9.254522622E-3,-2.351588905E-1
1.328540964E1,3.404426873E-1,2.408567443E-2,-2.279443145E-1
1.330207557E1,3.576183319E-1,1.930558383E-1,-1.964708567E-1
1.331874151E1,3.234115541E-1,3.317227066E-1,-1.529137790E-1
1.333540745E1,2.209155113E-1,3.051101565E-1,-9.683477134E-2
1.335207339E1,1.603100002E-1,1.243041754E-1,-3.620041907E-2
1.336873932E1,2.034287602E-1,-4.429025203E-2,1.081012189E-3
1.338540526E1,2.876677513E-1,-1.007703096E-1,-4.192646593E-2
1.340207120E1,2.996460199E-1,-1.098427176E-1,-1.180043295E-1
1.341873714E1,2.213425338E-1,-8.263522387E-2,-1.644461453E-1
1.343540307E1,2.058413178E-1,-3.471377864E-2,-1.891678274E-1
1.345206901E1,2.897490561E-1,3.496447206E-2,-2.358144224E-1
1.346873495E1,3.530016243E-1,1.666803807E-1,-3.072003424E-1
1.348540089E1,3.784145713E-1,2.899938524E-1,-3.442054093E-1
1.350206682E1,3.407246172E-1,3.652496040E-1,-3.132253587E-1
1.351873276E1,1.876896024E-1,3.891672492E-1,-2.742533982E-1
1.353539870E1,1.438306645E-4,3.654845953E-1,-2.233573794E-1
1.355206464E1,-1.501330435E-1,3.436096609E-1,-1.612841785E-1
1.356873057E1,-3.489748240E-1,4.290920496E-1,-8.568922430E-2
1.358539651E1,-6.059690118E-1,5.579662919E-1,-1.699734479E-3
1.360206245E1,-7.939359546E-1,5.556893945E-1,1.088610590E-1
1.361872839E1,-9.017193317E-1,3.376391232E-1,2.238841057E-1
1.363539432E1,-1.024549603E0,-7.416931447E-3,2.731513381E-1
1.365206026E1,-1.150069833E0,-3.905259371E-1,2.845437527E-1
1.366872620E1,-1.246630311E0,-7.770889401E-1,3.043297529E-1
1.368539214E1,-1.287138581E0,-1.073501706E0,4.062395990E-1
1.370205807E1,-1.171247363E0,-1.068155646E0,6.578897238E-1
1.371872401E1,-1.028999686E0,-4.971828163E-1,8.872395754E-1
1.373538995E1,-1.143519163E0,4.252668023E-1,8.592449427E-1
1.375205589E1,-1.540655732E0,1.141565084E0,6.544958353E-1
1.376872182E1,-1.984367728E0,1.190835834E0,4.679999948E-1
1.378538776E1,-2.432077646E0,9.980823994E-1,3.438958824E-1
1.380205370E1,-2.877967358E0,1.287097573E0,1.885192990E-1
1.381871964E1,-3.079103231E0,1.802987814E0,7.441088557E-2
1.383538557E1,-2.782683372E0,1.800436735E0,1.498029232E-1
1.385205151E1,-2.168814898E0,9.808707833E-1,4.382506013E-1
1.386871745E1,-1.663166881E0,-3.912308440E-2,7.229266167E-1
1.388538339E1,-1.445055127E0,-5.856316090E-1,8.990529776E-1
1.390204932E1,-1.363150477E0,-6.396495104E-1,9.997792840E-1
1.391871526E1,-1.195952177E0,-4.871278107E-1,1.030923128E0
1.393538120E1,-8.284559846E-1,-3.098896146E-1,1.002209306E0
1.395204714E1,-3.461933732E-1,-1.640216857E-1,9.104474187E-1
1.396871307E1,7.730385289E-3,-1.013243757E-2,7.853376865E-1
1.398537901E1,5.858828127E-2,-4.727195576E-2,6.950056553E-1
1.400204495E1,-2.633087635E-1,-4.317986369E-1,7.104998827E-1
1.401871089E1,-7.893033624E-1,-6.712215543E-1,8.218038678E-1
1.403537682E1,-1.188076615E0,-3.277901411E-1,9.249480963E-1
1.405204276E1,-1.409795880E0,3.270175457E-1,9.319350719E-1
1.406870870E1,-1.437249899E0,9.060201049E-1,8.399276733E-1
1.408537464E1,-1.207950711E0,1.212391615E0,7.990828156E-1
1.410204057E1,-7.188251019E-1,1.120428085E0,9.251321554E-1
1.411870651E1,-2.261300534E-1,5.728089213E-1,1.156957746E0
1.413537245E1,2.249404043E-2,1.013954580E-1,1.321865201E0
1.415203839E1,1.633110642E-1,-5.225540604E-3,1.249497175E0
1.416870432E1,2.706487477E-1,-1.344443858E-1,9.718598127E-1
1.418537026E1,3.177694380E-1,-7.834439725E-2,6.793348193E-1
1.420203620E1,2.507572770E-1,3.866446018E-1,4.399465919E-1
1.421870214E1,2.254991680E-1,9.218330979E-1,2.411853075E-1
1.423536807E1,4.140644372E-1,1.129388928E0,1.304216385E-1
1.425203401E1,6.993764043E-1,1.040441036E0,4.805384949E-2
1.426869995E1,1.051589251E0,8.242378235E-1,-2.178027853E-2
1.428536589E1,1.317447782E0,1.632843167E-1,-1.095554605E-1
1.430203182E1,1.286268711E0,-1.159497857E0,-3.849844635E-2
1.431869776E1,1.399329782E0,-8.182482123E-1,2.826368213E-1
1.433536370E1,1.341040730E0,1.961041391E-1,2.619075179E-1
1.435202964E1,1.249257803E0,8.943919539E-1,1.249878295E-2
1.436869557E1,1.164150119E0,3.411602378E-1,-3.358054459E-1
1.438536151E1,9.919947982E-1,3.854563832E-2,-6.195156574E-1
1.440202745E1,7.622315884E-1,3.491640091E-1,-7.199234366E-1
1.441869339E1,5.365467072E-1,8.487764001E-1,-6.507623196E-1
1.443535932E1,3.325259089E-1,1.331419826E0,-4.785027504E-1
1.445202526E1,2.298254371E-1,1.498690844E0,-2.645926178E-1
1.446869120E1,2.732484043E-1,1.266245246E0,-8.965086192E-2
1.448535714E1,3.935336471E-1,8.735167980E-1,-5.886528641E-3
1.450202307E1,5.310461521E-1,4.400474727E-1,-1.634744927E-2
1.451868901E1,7.154005170E-1,4.438862577E-2,-4.749788344E-2
1.453535495E1,9.486241937E-1,-1.650559753E-1,-3.630570322E-2
1.455202089E1,1.133772254E0,-1.596256346E-1,-4.140858352E-2
1.456868682E1,1.216920137E0,-1.156700030E-2,-7.542893291E-2
1.458535276E1,1.224071026E0,1.437111348E-1,-1.085110232E-1
1.460201870E1,1.195492625E0,1.995683163E-1,-1.743426323E-1
1.461868464E1,1.147783995E0,8.414908499E-2,-2.424611151E-1
1.463535057E1,1.080566645E0,-1.932526380E-1,-2.434920967E-1
1.465201651E1,9.852449894E-1,-4.735422432E-1,-1.977162063E-1
1.466868245E1,8.696548939E-1,-6.255095601E-1,-1.477735639E-1
1.468534839E1,7.544230819E-1,-6.462237239E-1,-1.057643369E-1
1.470201432E1,7.003225684E-1,-5.718398094E-1,-1.140485629E-1
1.471868026E1,7.316105366E-1,-4.231719375E-1,-1.763072312E-1
1.473534620E1,7.553578019E-1,-2.447651029E-1,-2.313076556E-1
1.475201214E1,7.176603675E-1,-1.559724659E-1,-2.630304098E-1
1.476867807E1,6.531639099E-1,-1.761521250E-1,-2.853954434E-1
1.478534401E1,6.345060468E-1,-2.506828308E-1,-2.994566262E-1
1.480200995E1,6.714977622E-1,-2.609775066E-1,-3.035565019E-1
1.481867589E1,7.247620225E-1,-2.037141174E-1,-2.911079824E-1
1.483534182E1,7.870126367E-1,-1.366125345E-1,-2.685120404E-1
1.485200776E1,8.246191144E-1,-1.537526399E-1,-2.831423879E-1
1.486867370E1,8.109615445E-1,-2.711389065E-1,-3.267952502E-1
1.488533964E1,7.220885754E-1,-3.776680231E-1,-3.750980794E-1
1.490200557E1,5.483310819E-1,-3.880915046E-1,-4.452030063E-1
1.491867151E1,3.484337926E-1,-3.512571156E-1,-5.088644028E-1
1.493533745E1,2.130731940E-1,-2.903978229E-1,-5.161983371E-1
1.495200339E1,1.557780057E-1,-2.638312578E-1,-4.846596718E-1
1.496866932E1,1.709643602E-1,-3.382565975E-1,-4.390794635E-1
1.498533526E1,1.873403490E-1,-4.558794498E-1,-3.998020589E-1
1.500200120E1,1.565112770E-1,-5.030297637E-1,-3.642589450E-1
1.501866714E1,1.458318383E-1,-4.537954330E-1,-3.380976021E-1
1.503533307E1,1.959024221E-1,-3.474543691E-1,-3.300392926E-1
1.505199901E1,2.881203294E-1,-1.876591742E-1,-3.343582749E-1
1.506866495E1,3.624402881E-1,-2.031168528E-2,-3.454509079E-1
1.508533089E1,3.849968314E-1,2.942764759E-2,-3.404091299E-1
1.510199682E1,3.225897551E-1,-7.221321762E-2,-3.030626476E-1
1.511866276E1,2.912694514E-1,-2.997137904E-1,-2.438080609E-1
1.513532870E1,3.719917536E-1,-6.241421700E-1,-1.661961973E-1
1.515199464E1,4.180249572E-1,-9.314832091E-1,-9.375115484E-2
1.516866057E1,3.339086175E-1,-1.001351237E0,1.149573736E-2
1.518532651E1,1.190737337E-1,-6.591759324E-1,1.370052993E-1
1.520199245E1,-2.452777475E-1,1.655334085E-1,1.656484604E-1
1.521865839E1,-6.773442626E-1,8.084898591E-1,1.222427785E-1
1.523532432E1,-1.071653008E0,7.277989388E-1,1.070977300E-1
1.525199026E1,-1.311497569E0,1.327441782E-1,1.605335027E-1
1.526865620E1,-1.317979932E0,-4.915242493E-1,2.748529911E-1
1.528532214E1,-1.188065767E0,-7.937230468E-1,4.069889188E-1
1.530198807E1,-1.076818824E0,-7.106350064E-1,4.729124606E-1
1.531865401E1,-1.065309167E0,-3.932858706E-1,4.748969674E-1
1.533531995E1,-1.184157372E0,5.192594603E-2,4.511647820E-1
1.535198589E1,-1.365231633E0,4.954831302E-1,3.925010562E-1
1.536865182E1,-1.594590068E0,8.201404214E-1,2.877868712E-1
1.538531776E1,-1.896265388E0,9.834231734E-1,1.806920171E-1
1.540198370E1,-2.168340206E0,9.516932964E-1,1.185843050E-1
1.541864964E1,-2.260516405E0,7.668406367E-1,1.253453493E-1
1.543531557E1,-2.092635632E0,5.380803943E-1,1.725208461E-1
1.545198151E1,-1.658299327E0,2.151096016E-1,2.799884081E-1
1.546864745E1,-1.048810840E0,-1.474242061E-1,5.208168626E-1
1.548531339E1,-5.143828988E-1,-3.386407495E-1,7.267096043E-1
1.550197932E1,-2.161201835E-1,-4.140965044E-1,8.030810952E-1
1.551864526E1,-1.137381047E-1,-5.265778899E-1,7.911484838E-1
1.553531120E1,-1.152885109E-1,-8.763499856E-1,7.619726658E-1
1.555197714E1,-2.336024493E-1,-1.497194409E0,7.563010454E-1
1.556864307E1,-5.458063483E-1,-2.069607258E0,7.628839612E-1
1.558530901E1,-8.754470944E-1,-1.931954265E0,7.628675103E-1
1.560197495E1,-1.065009356E0,-1.144733787E0,7.330279946E-1
1.561864089E1,-1.185615301E0,-2.229624093E-1,6.902707815E-1
1.563530682E1,-1.275907397E0,4.491379857E-1,6.505382061E-1
1.565197276E1,-1.382313490E0,6.542614102E-1,6.038139462E-1
1.566863870E1,-1.463428378E0,5.258964896E-1,5.705201626E-1
1.568530464E1,-1.392581820E0,3.628022373E-1,5.997295976E-1
1.570197057E1,-1.138810635E0,3.610414267E-1,6.931095719E-1
1.571863651E1,-8.535201550E-1,4.219640493E-1,7.669873238E-1
1.573530245E1,-7.057974935E-1,4.407273531E-1,7.643501759E-1
1.575196839E1,-6.711748242E-1,4.504463673E-1,6.956080198E-1
1.576863432E1,-6.245931983E-1,5.200279355E-1,5.917875767E-1
1.578530026E1,-5.288019776E-1,5.624249578E-1,4.643496573E-1
1.580196620E1,-3.800624609E-1,5.204368234E-1,3.282281458E-1
1.581863214E1,-1.586868465E-1,4.811826944E-1,2.214826941E-1
1.583529807E1,1.096371040E-1,4.490652084E-1,1.413766742E-1
1.585196401E1,4.017701447E-1,4.005685747E-1,6.373644620E-2
1.586862995E1,6.952247024E-1,3.761200607E-1,-3.723876178E-2
1.588529589E1,9.968268871E-1,4.133715332E-1,-1.370140910E-1
1.590196182E1,1.270079851E0,4.649076164E-1,-2.224645913E-1
1.591862776E1,1.480010152E0,6.016040444E-1,-2.842644155E-1
1.593529370E1,1.439535737E0,4.583414197E-1,-2.897802889E-1
1.595195964E1,7.343075871E-1,-1.069308043E0,-6.496208906E-2
1.596862557E1,5.709725022E-1,-6.855328083E-1,4.281732440E-1
1.598529151E1,1.057579756E0,3.992266655E-1,3.527685404E-1
1.600195745E1,1.649795294E0,1.053450942E0,7.844657451E-2
1.601862339E1,1.774201274E0,3.148216754E-2,-2.087686062E-1
1.603528932E1,1.530099630E0,-6.820172668E-1,-4.702303410E-1
1.605195526E1,1.127504706E0,-4.005836248E-1,-6.177591681E-1
1.606862120E1,8.493537903E-1,2.679413557E-1,-6.811820865E-1
1.608528714E1,7.638096809E-1,9.615480900E-1,-5.915532112E-1
1.610195307E1,6.078464985E-1,1.340673089E0,-3.508805335E-1
1.611861901E1,4.140902758E-1,1.225402713E0,-7.461942732E-2
1.613528495E1,2.723364234E-1,8.191050887E-1,1.524334848E-1
1.615195089E1,2.620805800E-1,3.639814556E-1,2.640988827E-1
1.616861682E1,4.239740670E-1,-3.447655123E-3,2.273709774E-1
1.618528276E1,6.915385723E-1,-2.509447038E-1,1.331977248E-1
1.620194870E1,8.948535323E-1,-3.500877917E-1,3.654464707E-2
1.621861464E1,9.599584937E-1,-2.720028162E-1,-8.874522895E-2
1.623528057E1,9.685113430E-1,-1.580505222E-1,-2.169482410E-1
1.625194651E1,9.670410752E-1,-1.613133997E-1,-3.037777245E-1
1.626861245E1,9.590432048E-1,-2.924889326E-1,-3.975074887E-1
1.628527839E1,9.278115630E-1,-5.192953944E-1,-5.374653935E-1
1.630194432E1,8.431196809E-1,-7.259216309E-1,-6.387607455E-1
1.631861026E1,7.079046369E-1,-7.382860184E-1,-6.635640860E-1
1.633527620E1,5.716197491E-1,-5.430541635E-1,-6.375846267E-1
1.635194214E1,4.776653051E-1,-3.538110554E-1,-5.770435929E-1
1.636860807E1,4.261195064E-1,-2.979680896E-1,-4.809634686E-1
1.638527401E1,3.889361024E-1,-3.257866204E-1,-3.763927817E-1
1.640193995E1,3.478920460E-1,-3.156591058E-1,-2.883342803E-1
1.641860589E1,3.268654048E-1,-2.442479134E-1,-2.386763394E-1
1.643527182E1,3.384469748E-1,-1.563878953E-1,-1.847615540E-1
1.645193776E1,3.635084927E-1,-1.381229013E-1,-9.888308495E-2
1.646860370E1,4.292500317E-1,-1.889525205E-1,-6.684146821E-3
1.648526964E1,5.649359822E-1,-2.603433132E-1,5.083389580E-2
1.650193557E1,6.788687706E-1,-2.573155165E-1,5.630210787E-2
1.651860151E1,6.791741252E-1,-1.429479867E-1,1.659743674E-2
1.653526745E1,6.375429630E-1,1.196131948E-2,-3.983864188E-2
1.655193339E1,6.585785747E-1,7.847280800E-2,-1.033278629E-1
1.656859932E1,6.835364699E-1,-1.948268898E-2,-1.755118668E-1
1.658526526E1,6.228832006E-1,-2.289755642E-1,-2.610891759E-1
1.660193120E1,4.977602363E-1,-3.744871616E-1,-3.277001083E-1
1.661859714E1,3.818258643E-1,-3.384679854E-1,-3.538008034E-1
1.663526307E1,3.168886006E-1,-2.156335413E-1,-3.678527772E-1
1.665192901E1,2.704470158E-1,-1.843448132E-1,-3.636183143E-1
1.666859495E1,2.138668448E-1,-2.847781181E-1,-3.341346383E-1
1.668526089E1,1.698433757E-1,-3.702443838E-1,-2.741468847E-1
1.670192682E1,1.856790930E-1,-3.298838437E-1,-2.107069492E-1
1.671859276E1,2.733840346E-1,-1.678455919E-1,-1.850559115E-1
1.673525870E1,3.682767153E-1,-4.815270659E-3,-1.992157102E-1
1.675192464E1,3.739108443E-1,1.273450702E-1,-2.355939746E-1
1.676859057E1,3.444867432E-1,1.397998184E-1,-2.596424818E-1
1.678525651E1,2.472046167E-1,-3.677263111E-2,-2.969567478E-1
1.680192245E1,1.352132484E-2,-3.126265407E-1,-3.332650959E-1
1.681858839E1,-2.018460333E-1,-5.806755424E-1,-4.109123647E-1
1.683525432E1,-2.447655797E-1,-7.672689557E-1,-5.232173204E-1
1.685192026E1,-5.997533351E-2,-8.515968919E-1,-5.828291178E-1
1.686858620E1,2.541384399E-1,-7.014038563E-1,-5.633005500E-1
1.688525214E1,4.994710088E-1,-2.095504254E-1,-4.388675988E-1
1.690191807E1,5.417065024E-1,4.414432645E-1,-1.749211550E-1
1.691858401E1,3.992679119E-1,1.075166583E0,1.992679834E-1
1.693524995E1,1.809726059E-1,1.534547567E0,4.304021895E-1
1.695191589E1,-3.663268313E-2,1.719964385E0,4.300110936E-1
1.696858182E1,-2.106844485E-1,1.546622634E0,3.798680604E-1
1.698524776E1,-3.212091327E-1,9.734941125E-1,3.670645058E-1
1.700191370E1,-3.640868664E-1,1.545361727E-1,3.779282272E-1
1.701857964E1,-3.914000988E-1,-6.232798696E-1,4.076643884E-1
1.703524557E1,-4.607479274E-1,-1.016097426E0,4.095602632E-1
1.705191151E1,-6.557322145E-1,-8.628378510E-1,3.321996629E-1
1.706857745E1,-1.041531682E0,-3.637213707E-1,1.926037669E-1
1.708524339E1,-1.558880568E0,1.530838460E-1,6.544075161E-2
1.710190932E1,-2.104439735E0,4.411673546E-1,-1.483076066E-2
1.711857526E1,-2.533593655E0,3.540787399E-1,-5.218046904E-2
1.713524120E1,-2.646893978E0,-2.149525434E-1,-4.764901102E-2
1.715190714E1,-2.260045528E0,-9.449447989E-1,3.576863557E-3
1.716857307E1,-1.550034881E0,-1.633609176E0,1.360132098E-1
1.718523901E1,-8.988447785E-1,-1.985943675E0,3.602389693E-1
1.720190495E1,-5.712277293E-1,-1.649699092E0,5.598564148E-1
1.721857089E1,-5.666072965E-1,-8.372909427E-1,6.474465132E-1
1.723523682E1,-8.003064990E-1,-1.757957488E-1,6.272639036E-1
1.725190276E1,-1.183924317E0,4.198485240E-2,6.047940850E-1
1.726856870E1,-1.655514836E0,3.882944211E-2,6.109549999E-1
1.728523464E1,-1.924354196E0,2.163157240E-2,6.369316578E-1
1.730190057E1,-1.752598882E0,1.166518107E-1,6.999545097E-1
1.731856651E1,-1.340460181E0,5.020447969E-1,7.783353925E-1
1.733523245E1,-9.783914089E-1,9.088814855E-1,8.251539469E-1
1.735189839E1,-8.237436414E-1,8.059339523E-1,8.049433827E-1
1.736856432E1,-9.919415116E-1,-1.486661285E-2,7.562929392E-1
1.738523026E1,-1.229506373E0,-7.550957799E-1,7.349566221E-1
1.740189620E1,-1.266028166E0,-8.898558021E-1,7.298884988E-1
1.741856214E1,-1.109328866E0,-5.402122140E-1,7.226288319E-1
1.743522807E1,-8.835511208E-1,-1.423427314E-1,7.469364405E-1
1.745189401E1,-6.630553603E-1,5.376071483E-2,8.065749407E-1
1.746855995E1,-5.069623590E-1,8.088263869E-2,8.521853089E-1
1.748522589E1,-4.500093460E-1,1.636382192E-1,8.026633263E-1
1.750189182E1,-4.451392293E-1,2.965027690E-1,6.671141386E-1
1.751855776E1,-3.826729059E-1,3.727484345E-1,4.968421161E-1
1.753522370E1,-1.716932356E-1,3.727859259E-1,3.046075404E-1
1.755188964E1,2.127491236E-1,3.479328752E-1,1.072981209E-1
1.756855557E1,6.606774926E-1,3.046072721E-1,1.922629774E-3
1.758522151E1,1.095297456E0,2.153695077E-1,-4.451499134E-2
1.760188745E1,1.494555831E0,9.872785211E-2,-1.385609508E-1
1.761855339E1,1.509358287E0,-4.129166007E-1,-2.382041812E-1
1.763521932E1,9.243769646E-1,-1.589679599E0,-2.666004002E-4
1.765188526E1,8.583865166E-1,-9.061601162E-1,5.087335706E-1
1.766855120E1,1.333638549E0,7.494285107E-1,4.549245536E-1
1.768521714E1,1.459845901E0,1.558489084E0,1.442871392E-1
1.770188307E1,1.076240659E0,8.343654871E-2,-2.126962543E-1
1.771854901E1,9.838389754E-1,-9.969650507E-1,-6.276444197E-1
1.773521495E1,1.396138549E0,-9.433965087E-1,-9.565204382E-1
1.775188089E1,1.692756057E0,-1.240110621E-1,-1.021916986E0
1.776854682E1,1.435064435E0,6.076135039E-1,-8.885591030E-1
1.778521276E1,8.701371551E-1,1.176763296E0,-6.542696953E-1
1.780187870E1,4.383924305E-1,1.608296514E0,-3.939153850E-1
1.781854464E1,2.643973231E-1,1.867610097E0,-1.859847307E-1
1.783521057E1,3.315982819E-1,1.724899530E0,-8.036272228E-2
1.785187651E1,5.561485291E-1,1.179216266E0,-3.763546050E-2
1.786854245E1,7.591208816E-1,5.895318985E-1,-1.412607357E-2
1.788520839E1,8.186456561E-1,2.050246894E-1,-1.578767970E-2
1.790187432E1,7.732616067E-1,1.027778238E-1,-8.214792609E-2
1.791854026E1,7.758913636E-1,1.341616958E-1,-1.966073811E-1
1.793520620E1,8.569394946E-1,1.375911087E-1,-3.135907948E-1
1.795187214E1,9.213538766E-1,8.171162754E-2,-3.888061941E-1
1.796853807E1,9.412716031E-1,3.671478853E-2,-4.094954133E-1
1.798520401E1,9.319018722E-1,-4.695824161E-2,-4.056652486E-1
1.800186995E1,8.906598091E-1,-2.070522010E-1,-4.026075304E-1
1.801853589E1,8.465275168E-1,-3.189453781E-1,-3.505265415E-1
1.803520182E1,8.255841732E-1,-3.925237954E-1,-2.594485581E-1
1.805186776E1,8.163759112E-1,-5.110164285E-1,-2.204656005E-1
1.806853370E1,7.841554284E-1,-6.364818215E-1,-2.913149893E-1
1.808519964E1,7.052164674E-1,-8.074075580E-1,-4.173555672E-1
1.810186557E1,5.618805885E-1,-1.052503943E0,-5.061964989E-1
1.811853151E1,3.696610332E-1,-1.244265199E0,-5.607460737E-1
1.813519745E1,1.883924156E-1,-1.219432116E0,-5.911980271E-1
1.815186339E1,9.505342692E-2,-9.219973683E-1,-5.930471420E-1
1.816852932E1,1.348707378E-1,-5.231125951E-1,-5.606442094E-1
1.818519526E1,2.590436339E-1,-3.897120357E-1,-4.823846221E-1
1.820186120E1,4.053965807E-1,-4.570634663E-1,-3.954623044E-1
1.821852714E1,5.239432454E-1,-5.151502490E-1,-3.096928895E-1
1.823519307E1,6.016945839E-1,-5.274038911E-1,-2.497851551E-1
1.825185901E1,6.318615079E-1,-4.592137337E-1,-1.973945200E-1
1.826852495E1,6.288718581E-1,-3.018841147E-1,-1.430945396E-1
1.828519089E1,6.377612948E-1,-1.047445685E-1,-8.690814674E-2
1.830185682E1,6.704455614E-1,2.201548778E-4,-3.416077793E-2
1.831852276E1,6.672775149E-1,-8.365482092E-3,-5.368795246E-3
1.833518870E1,6.228255630E-1,-7.502727211E-2,-9.712424129E-3
1.835185464E1,5.602667332E-1,-1.716605872E-1,-5.239037424E-2
1.836852057E1,4.836706519E-1,-2.200648040E-1,-1.196022555E-1
1.838518651E1,4.138497710E-1,-2.265456021E-1,-1.946034431E-1
1.840185245E1,3.888757229E-1,-2.772755921E-1,-2.623999417E-1
1.841851839E1,3.800993562E-1,-3.640146852E-1,-3.276304603E-1
1.843518432E1,3.920930624E-1,-4.190576077E-1,-3.783818185E-1
1.845185026E1,4.464260340E-1,-3.959860802E-1,-3.975337446E-1
1.846851620E1,4.397867918E-1,-3.391047120E-1,-4.202759862E-1
1.848518214E1,3.644115329E-1,-3.209650815E-1,-4.295707643E-1
1.850184807E1,2.765162587E-1,-3.577321768E-1,-4.189462960E-1
1.851851401E1,1.872912049E-1,-4.116145372E-1,-4.069756567E-1
1.853517995E1,1.674127281E-1,-4.664307833E-1,-3.691640794E-1
1.855184589E1,1.452429444E-1,-4.566477537E-1,-3.251896203E-1
1.856851182E1,-1.682086661E-2,-3.712922633E-1,-2.866300046E-1
1.858517776E1,-1.709578633E-1,-3.329440951E-1,-2.193790674E-1
1.860184370E1,-1.735990047E-1,-4.327799678E-1,-1.388095915E-1
1.861850964E1,-8.011779934E-2,-6.588002443E-1,-7.462257892E-2
1.863517557E1,-8.313120343E-4,-9.159101844E-1,-4.072763026E-2
1.865184151E1,5.097275134E-3,-1.117642164E0,-2.347410470E-2
1.866850745E1,-5.741165578E-2,-1.206202149E0,-3.677329421E-2
1.868517339E1,-1.622266322E-1,-1.073862076E0,-3.243051469E-2
1.870183932E1,-2.882210612E-1,-6.597767472E-1,5.469809473E-2
1.871850526E1,-4.354590178E-1,-1.111866161E-1,2.383794785E-1
1.873517120E1,-6.771271229E-1,2.643749118E-1,4.179101586E-1
1.875183714E1,-1.029962301E0,4.270419776E-1,4.832496941E-1
1.876850307E1,-1.440026641E0,6.996200681E-1,4.276236594E-1
1.878516901E1,-1.757350564E0,1.043673754E0,3.087824583E-1
1.880183495E1,-1.902013898E0,1.186760545E0,1.878190041E-1
1.881850089E1,-1.855909109E0,9.626471400E-1,1.163356155E-1
1.883516682E1,-1.873786330E0,3.844687641E-1,1.492856294E-1
1.885183276E1,-2.026717186E0,-2.741601169E-1,2.712969184E-1
1.886849870E1,-2.167629719E0,-5.965014100E-1,4.031249881E-1
1.888516464E1,-2.096869230E0,-4.046438932E-1,5.299032927E-1
1.890183057E1,-1.667458653E0,-2.217846923E-4,6.792279482E-1
1.891849651E1,-1.058409572E0,3.430558145E-1,8.289766908E-1
1.893516245E1,-6.741478443E-1,6.325727105E-1,8.666647077E-1
1.895182839E1,-6.679813266E-1,7.884534001E-1,7.687934041E-1
1.896849432E1,-8.529675007E-1,6.929007173E-1,6.291596293E-1
1.898516026E1,-1.031113744E0,3.916371465E-1,5.088170171E-1
1.900182620E1,-1.081487417E0,7.401463576E-3,4.431947768E-1
1.901849214E1,-1.007547140E0,-3.964837790E-1,4.179028571E-1
1.903515807E1,-8.128371835E-1,-7.034570575E-1,4.096058905E-1
1.905182401E1,-4.951227307E-1,-8.492161632E-1,4.326595962E-1
1.906848995E1,-3.148111701E-2,-3.471902907E-1,5.052323937E-1
1.908515589E1,4.076744914E-1,5.652541518E-1,4.805995822E-1
1.910182182E1,6.304466128E-1,1.171676874E0,3.101577461E-1
1.911848776E1,6.588473916E-1,1.206789494E0,9.521338344E-2
1.913515370E1,6.326105595E-1,8.292002678E-1,-4.475442320E-2
1.915181964E1,6.270200610E-1,4.634874463E-1,-9.577970952E-2
1.916848557E1,6.369533539E-1,3.553180397E-1,-1.143190488E-1
1.918515151E1,6.216887832E-1,4.698373079E-1,-1.121135280E-1
1.920181745E1,5.416495800E-1,6.832290292E-1,-1.192700788E-1
1.921848339E1,4.619694352E-1,8.779903054E-1,-1.764189005E-1
1.923514932E1,4.220545292E-1,9.839423299E-1,-2.775303423E-1
1.925181526E1,4.431433976E-1,9.502778053E-1,-3.652423024E-1
1.926848120E1,4.742696285E-1,8.635922074E-1,-3.904547393E-1
1.928514714E1,4.623712599E-1,8.156606555E-1,-3.348604143E-1
1.930181307E1,3.653873503E-1,7.639253139E-1,-1.950802803E-1
1.931847901E1,1.637586057E-1,6.051221490E-1,3.289771453E-2
1.933514495E1,4.242573678E-2,3.809653223E-1,3.295065761E-1
1.935181089E1,1.748217642E-1,2.151220888E-1,5.968565941E-1
1.936847682E1,4.567131996E-1,1.414922625E-1,7.358822823E-1
1.938514276E1,6.385904551E-1,1.197161525E-1,7.280580997E-1
1.940180870E1,6.209595799E-1,1.383296102E-1,5.761235356E-1
1.941847464E1,5.352683067E-1,1.313979775E-1,3.445486724E-1
1.943514057E1,3.762970269E-1,3.414312005E-2,3.536856174E-2
1.945180651E1,1.837154329E-1,-1.435165703E-1,-2.063763738E-1
1.946847245E1,5.831314716E-3,-2.864784896E-1,-3.410987258E-1
1.948513839E1,-4.065303132E-2,-2.956233323E-1,-3.661468327E-1
1.950180432E1,1.181280334E-2,-2.937189043E-1,-2.089108527E-1
1.951847026E1,1.177504137E-1,-3.790335059E-1,7.660937309E-2
1.953513620E1,2.980040610E-1,-6.154188514E-1,2.745924294E-1
1.955180214E1,4.787043333E-1,-7.520684600E-1,2.633761764E-1
1.956846807E1,5.674373507E-1,-6.055824757E-1,5.492943525E-2
1.958513401E1,6.023681164E-1,-3.093026578E-1,-2.009027004E-1
1.960179995E1,6.178351045E-1,-3.848511726E-2,-2.862889767E-1
1.961846589E1,5.444334745E-1,1.581448466E-1,-1.399237514E-1
1.963513182E1,3.813340068E-1,4.420900047E-1,7.149858773E-2
1.965179776E1,3.087431490E-1,7.699593902E-1,1.513666213E-1
1.966846370E1,3.885490298E-1,8.996515870E-1,5.390911549E-2
1.968512964E1,4.725777507E-1,8.079372048E-1,-9.112869948E-2
1.970179557E1,4.869118035E-1,6.199523807E-1,-1.688661575E-1
1.971846151E1,4.428599477E-1,5.004709959E-1,-1.888149977E-1
1.973512745E1,3.928021789E-1,4.557414651E-1,-1.612462103E-1
1.975179339E1,3.757345974E-1,2.741488814E-1,-9.397681803E-2
1.976845932E1,4.032410383E-1,-6.795173045E-3,-1.296123490E-2
1.978512526E1,4.617375731E-1,-1.738477051E-1,6.422110647E-2
1.980179120E1,5.268093944E-1,-1.681438982E-1,1.018391699E-1
1.981845714E1,5.527183414E-1,-1.197203472E-1,6.136707962E-2
1.983512307E1,5.343924165E-1,-1.373649389E-1,-3.823127598E-2
1.985178901E1,5.391638279E-1,-8.713056147E-2,-1.633589268E-1
1.986845495E1,5.891448855E-1,7.783116400E-2,-2.681936920E-1
1.988512089E1,6.052960753E-1,2.204720229E-1,-3.542221487E-1
1.990178682E1,5.609577894E-1,2.621705532E-1,-4.355807602E-1
1.991845276E1,5.216167569E-1,2.352504432E-1,-4.734385014E-1
1.993511870E1,5.395058990E-1,2.003250867E-1,-4.427470863E-1
1.995178464E1,6.054878235E-1,1.900518984E-1,-3.357852399E-1
1.996845057E1,6.956484914E-1,1.807226092E-1,-2.016240358E-1
1.998511651E1,7.510697842E-1,9.816802293E-2,-1.234138682E-1
2.000178245E1,6.948327422E-1,-4.780152813E-2,-1.356165409E-1
2.001844839E1,5.694706440E-1,-1.851265877E-1,-2.232874334E-1
2.003511432E1,4.833841622E-1,-1.960531771E-1,-3.429154754E-1
2.005178026E1,4.823073745E-1,-7.281208783E-2,-4.591564536E-1
2.006844620E1,5.035382509E-1,1.567329653E-2,-5.454008579E-1
2.008511214E1,4.351148605E-1,7.427579723E-3,-5.714557171E-1
2.010177807E1,2.079627663E-1,1.210439578E-2,-5.308786631E-1
2.011844401E1,-1.542357206E-1,1.068126932E-1,-4.106362760E-1
2.013510995E1,-5.112665296E-1,2.668140531E-1,-1.784464717E-1
2.015177589E1,-7.585682273E-1,4.471710622E-1,1.460240334E-1
2.016844182E1,-8.673078418E-1,5.784471631E-1,4.577472806E-1
2.018510776E1,-9.286995530E-1,6.352317929E-1,5.772382021E-1
2.020177370E1,-1.012001276E0,7.841398716E-1,3.939406574E-1
2.021843964E1,-1.062570214E0,1.136106372E0,5.125248805E-2
2.023510557E1,-1.123617530E0,1.416077018E0,-2.033558190E-1
2.025177151E1,-1.214357018E0,1.459488630E0,-2.980314791E-1
2.026843745E1,-1.297919154E0,1.363330245E0,-2.446828485E-1
2.028510339E1,-1.325385809E0,1.271157265E0,-6.322280318E-2
2.030176932E1,-1.297354817E0,1.129891515E0,2.447472215E-1
2.031843526E1,-1.282344103E0,9.886025786E-1,6.578763723E-1
2.033510120E1,-1.386093378E0,9.120485783E-1,1.135254264E0
2.035176714E1,-1.588802576E0,9.476179481E-1,1.516104460E0
2.036843307E1,-1.774621129E0,1.124880910E0,1.614743948E0
2.038509901E1,-1.790790200E0,1.408520103E0,1.371424794E0
2.040176495E1,-1.470630407E0,1.715478659E0,8.671687245E-1
2.041843089E1,-4.322981536E-1,1.911279798E0,3.824371696E-1
2.043509682E1,5.642064214E-1,1.939338923E0,2.865853608E-1
2.045176276E1,8.161060810E-1,1.987115622E0,3.761853278E-1
2.046842870E1,6.188603640E-1,1.941050887E0,4.683236480E-1
2.048509464E1,3.578136265E-1,1.619834781E0,5.343341231E-1
2.050176057E1,1.370001137E-1,1.134261250E0,5.727412701E-1
2.051842651E1,-5.653459206E-2,7.850386500E-1,5.948275924E-1
2.053509245E1,-1.371185333E-1,7.985708714E-1,6.247051358E-1
2.055175839E1,-4.943253100E-2,1.183693528E0,6.920941472E-1
2.056842432E1,1.282458305E-1,1.732200027E0,7.981069088E-1
2.058509026E1,2.535398901E-1,2.185343266E0,8.842809796E-1
2.060175620E1,2.818271220E-1,2.337557793E0,8.833898306E-1
2.061842214E1,2.622873783E-1,2.079858303E0,8.197863698E-1
2.063508807E1,2.603443861E-1,1.599529028E0,8.425458074E-1
2.065175401E1,3.022584021E-1,1.118552208E0,9.232797623E-1
2.066841995E1,4.060789645E-1,8.448853493E-1,9.078169465E-1
2.068508589E1,5.319475532E-1,9.515821934E-1,7.530642748E-1
2.070175182E1,5.430725813E-1,1.273714066E0,5.223541856E-1
2.071841776E1,3.910146058E-1,1.483384490E0,3.126745522E-1
2.073508370E1,2.305125594E-1,1.495204568E0,1.939078867E-1
2.075174964E1,1.658960879E-1,1.374765635E0,1.600015759E-1
2.076841557E1,1.604690999E-1,1.215002298E0,1.500703096E-1
2.078508151E1,1.105919555E-1,1.137377024E0,2.255483866E-1
2.080174745E1,-2.695761994E-2,1.164488912E0,4.231199920E-1
2.081841339E1,-1.002378836E-1,1.241107821E0,6.304590106E-1
2.083507932E1,-5.102235451E-2,1.209733605E0,7.004378438E-1
2.085174526E1,-6.019473821E-2,1.025187135E0,6.968015432E-1
2.086841120E1,-1.662094891E-1,8.159056306E-1,7.431409955E-1
2.088507714E1,-1.932801008E-1,7.290995717E-1,7.753501534E-1
2.090174307E1,1.251264662E-1,7.801271081E-1,7.796056867E-1
2.091840901E1,2.800297737E-1,1.213704467E0,6.776258945E-1
2.093507495E1,4.367522523E-2,1.687066436E0,4.277760088E-1
2.095174089E1,-2.429050505E-1,1.612524152E0,2.292501926E-1
2.096840682E1,-3.514669538E-1,8.599213958E-1,1.702686250E-1
2.098507276E1,-2.279441953E-1,-1.408424675E-1,1.897568703E-1
2.100173870E1,-3.488463536E-2,-6.945680976E-1,1.536119729E-1
2.101840464E1,1.211377159E-1,-5.205338597E-1,6.370010972E-2
2.103507057E1,3.139124215E-1,9.160976112E-2,7.038734853E-3
2.105173651E1,5.538081527E-1,8.720343113E-1,-1.074470207E-2
2.106840245E1,7.412152886E-1,1.549510598E0,-3.401555121E-3
2.108506839E1,8.484127522E-1,1.904349566E0,3.501284868E-2
2.110173432E1,9.325851798E-1,1.952551246E0,1.079697236E-1
2.111840026E1,1.011398673E0,1.870524168E0,1.999627352E-1
2.113506620E1,1.031793833E0,1.773187399E0,2.622601688E-1
2.115173214E1,9.614855647E-1,1.651663184E0,2.941077352E-1
2.116839807E1,8.520565033E-1,1.438895106E0,2.898271382E-1
2.118506401E1,7.424702644E-1,1.144039750E0,2.719170451E-1
2.120172995E1,6.023232341E-1,8.456949592E-1,2.690916061E-1
2.121839589E1,4.475569725E-1,6.193475127E-1,2.505291104E-1
2.123506182E1,3.479290307E-1,4.329619408E-1,1.894488633E-1
2.125172776E1,3.111212552E-1,2.662410438E-1,9.293885529E-2
2.126839370E1,2.967255414E-1,1.916500777E-1,5.998009816E-3
2.128505964E1,3.153983057E-1,2.093761414E-1,-4.410598427E-2
2.130172557E1,3.821097612E-1,3.050962389E-1,-6.719459593E-2
2.131839151E1,4.905788898E-1,5.130402446E-1,-7.445274293E-2
2.133505745E1,6.131674647E-1,7.586605549E-1,-7.926169038E-2
2.135172339E1,7.303442359E-1,9.017181396E-1,-8.146030456E-2
2.136838932E1,8.020889759E-1,8.729147315E-1,-9.450723976E-2
2.138505526E1,7.818720341E-1,7.212412357E-1,-1.439614296E-1
2.140172120E1,6.615024209E-1,5.208326578E-1,-2.123222351E-1
2.141838714E1,5.112402439E-1,3.500029743E-1,-2.625723779E-1
2.143505307E1,3.725394309E-1,2.010565698E-1,-2.950117290E-1
2.145171901E1,2.335841954E-1,1.086451411E-1,-3.320401013E-1
2.146838495E1,1.042299643E-1,1.409338266E-1,-3.680621088E-1
2.148505089E1,3.637511283E-2,2.419540584E-1,-3.631616235E-1
2.150171682E1,6.303876638E-2,2.737641931E-1,-3.268562853E-1
2.151838276E1,1.207868606E-1,1.731675714E-1,-3.084295094E-1
2.153504870E1,1.498357356E-1,5.203225091E-2,-3.229914308E-1
2.155171464E1,1.312696934E-1,5.167325959E-2,-3.427417576E-1
2.156838057E1,1.118350998E-1,1.101649180E-1,-3.385107219E-1
2.158504651E1,9.984393418E-2,9.043505043E-2,-3.129144013E-1
2.160171245E1,-9.585586376E-4,5.137547851E-3,-3.004180491E-1
2.161837839E1,-2.325454354E-1,-6.155803055E-2,-2.513976395E-1
2.163504432E1,-4.529695213E-1,-2.627576888E-2,-1.579296291E-1
2.165171026E1,-6.277399063E-1,1.155041829E-1,-7.665279508E-2
2.166837620E1,-8.639267087E-1,4.230505228E-1,-1.886000484E-2
2.168504214E1,-1.101753831E0,7.998552918E-1,1.694262587E-2
2.170170807E1,-1.254784226E0,1.059502363E0,1.764659397E-2
2.171837401E1,-1.347855806E0,1.166066766E0,1.657623798E-3
2.173503995E1,-1.480417371E0,1.249475598E0,4.100200906E-2
2.175170589E1,-1.658036947E0,1.359958887E0,1.695545614E-1
2.176837182E1,-1.839585543E0,1.375524759E0,3.220628202E-1
2.178503776E1,-1.961112738E0,1.225334406E0,4.881487787E-1
2.180170370E1,-1.955777407E0,1.083461046E0,6.970086694E-1
2.181836964E1,-1.793852925E0,1.071328998E0,9.630284309E-1
2.183503557E1,-1.564923048E0,1.102917671E0,1.197675943E0
2.185170151E1,-1.380167842E0,1.062153101E0,1.239874959E0
2.186836745E1,-1.235045910E0,8.848590255E-1,1.122084260E0
2.188503339E1,-1.049708009E0,6.619136333E-1,9.297066927E-1
2.190169932E1,-7.793416381E-1,5.141838193E-1,6.977755427E-1
2.191836526E1,-4.173546433E-1,5.448408723E-1,4.883618653E-1
2.193503120E1,-8.181451261E-2,7.956251502E-1,4.201546311E-1
2.195169714E1,1.297409683E-1,1.171462059E0,4.953626692E-1
2.196836307E1,2.136094272E-1,1.452028990E0,6.454641223E-1
2.198502901E1,2.267271578E-1,1.478309274E0,8.387829065E-1
2.200169495E1,2.187127024E-1,1.288799644E0,1.024201035E0
2.201836089E1,2.107177675E-1,1.121431112E0,1.154966593E0
2.203502682E1,2.146808505E-1,1.198528886E0,1.221232295E0
2.205169276E1,2.013600022E-1,1.477635622E0,1.176313043E0
2.206835870E1,1.663126796E-1,1.794647455E0,1.025068045E0
2.208502464E1,1.649583876E-1,2.016150951E0,8.597953916E-1
2.210169057E1,2.423964143E-1,2.039466858E0,7.848756313E-1
2.211835651E1,3.509780765E-1,1.772413135E0,7.544496655E-1
2.213502245E1,4.314281344E-1,1.187087655E0,6.634179950E-1
2.215168839E1,5.268924236E-1,6.470834613E-1,6.000381112E-1
2.216835432E1,6.272739172E-1,5.568446517E-1,6.108280420E-1
2.218502026E1,6.470445991E-1,8.917831779E-1,5.759454370E-1
2.220168620E1,4.857914448E-1,1.330071211E0,4.917186201E-1
2.221835214E1,1.293803304E-1,1.618885756E0,3.807611167E-1
2.223501807E1,-2.520374358E-1,1.683540463E0,2.624641061E-1
2.225168401E1,-4.375956655E-1,1.526775122E0,1.895360947E-1
2.226834995E1,-3.597756624E-1,1.341589093E0,2.049879134E-1
2.228501589E1,-1.269680858E-1,1.222431540E0,2.995073199E-1
2.230168182E1,1.182427034E-1,1.156528234E0,4.226537049E-1
2.231834776E1,2.928199768E-1,1.112764597E0,5.065221190E-1
2.233501370E1,3.683963418E-1,9.914050698E-1,5.309348106E-1
2.235167964E1,3.937389255E-1,8.054358959E-1,5.154086947E-1
2.236834557E1,4.218763709E-1,6.998860836E-1,5.017610192E-1
2.238501151E1,4.594414532E-1,7.767086029E-1,5.453615785E-1
2.240167745E1,5.120681524E-1,9.909949303E-1,6.114276648E-1
2.241834339E1,5.639831424E-1,1.139861226E0,6.028876305E-1
2.243500932E1,6.117465496E-1,1.113002181E0,5.234830976E-1
2.245167526E1,6.635475755E-1,9.085934162E-1,3.929552436E-1
2.246834120E1,5.987303853E-1,6.485257745E-1,2.348472178E-1
2.248500714E1,3.450008631E-1,5.827562213E-1,1.620792449E-1
2.250167307E1,-2.347145975E-2,8.200304508E-1,1.991671324E-1
2.251833901E1,-3.588325679E-1,1.011757731E0,2.382298112E-1
2.253500495E1,-5.054346919E-1,8.879037499E-1,2.095573545E-1
2.255167089E1,-3.985058665E-1,6.339352131E-1,1.628277898E-1
2.256833682E1,-1.596518010E-1,5.058725476E-1,1.263542920E-1
2.258500276E1,-5.023772828E-3,2.290723622E-1,5.561057478E-2
2.260166870E1,6.488393992E-2,-3.637101948E-1,-3.370281309E-3
2.261833464E1,1.145812199E-1,-9.437465668E-1,-6.270383298E-2
2.263500057E1,1.742808968E-1,-1.155971169E0,-1.824298799E-1
2.265166651E1,2.914687991E-1,-9.277878404E-1,-2.955264747E-1
2.266833245E1,4.686179757E-1,-3.977596164E-1,-2.905483842E-1
2.268499839E1,5.477160811E-1,2.977138758E-1,-1.166035458E-1
2.270166432E1,4.283778667E-1,1.000170946E0,1.618311703E-1
2.271833026E1,2.286229730E-1,1.557822943E0,3.270974457E-1
2.273499620E1,2.120157033E-1,1.893493772E0,2.304043770E-1
2.275166214E1,4.985720515E-1,1.794972539E0,-3.850947320E-2
2.276832807E1,7.625901103E-1,1.175558448E0,-2.062429190E-1
2.278499401E1,7.873813510E-1,4.650344849E-1,-1.603293419E-1
2.280165995E1,6.580756307E-1,1.759450324E-2,-3.092967719E-2
2.281832589E1,5.104295611E-1,-2.015977204E-1,4.628726840E-2
2.283499182E1,3.866320848E-1,-2.951413691E-1,4.796429351E-2
2.285165776E1,3.185197115E-1,-3.169987500E-1,1.157064550E-2
2.286832370E1,3.143249154E-1,-2.454056442E-1,-1.473826542E-2
2.288498964E1,3.372899592E-1,-9.759699553E-2,-4.235264659E-2
2.290165557E1,3.854473829E-1,1.033078041E-2,-8.137838542E-2
2.291832151E1,4.472577572E-1,8.460590988E-2,-1.190682873E-1
2.293498745E1,4.914286435E-1,2.124010026E-1,-1.419138908E-1
2.295165339E1,5.511981845E-1,3.350637555E-1,-1.516997218E-1
2.296831932E1,6.184288859E-1,4.224110842E-1,-1.687887013E-1
2.298498526E1,6.467685699E-1,4.559230208E-1,-1.902672052E-1
2.300165120E1,6.115713716E-1,3.988837004E-1,-2.126661539E-1
2.301831714E1,5.437088609E-1,2.703284025E-1,-2.200241983E-1
2.303498307E1,5.051783919E-1,1.779487580E-1,-1.754381061E-1
2.305164901E1,5.074874759E-1,1.564986557E-1,-1.075504199E-1
2.306831495E1,5.095443130E-1,1.373487860E-1,-7.758675516E-2
2.308498089E1,4.716501534E-1,6.371767074E-2,-1.011606678E-1
2.310164682E1,3.852238953E-1,-4.179838672E-2,-1.638545096E-1
2.311831276E1,2.950717807E-1,-1.066551805E-1,-2.330630124E-1
2.313497870E1,2.744541764E-1,-8.440296352E-2,-2.866451442E-1
2.315164464E1,3.078310490E-1,-2.121108212E-2,-3.207351863E-1
2.316831057E1,3.175806403E-1,-1.330285333E-2,-3.207356334E-1
2.318497651E1,2.954541445E-1,-7.813321054E-2,-2.811361849E-1
2.320164245E1,3.216493726E-1,-1.815094650E-1,-2.199333012E-1
2.321830839E1,3.610185683E-1,-3.321892023E-1,-1.770113111E-1
2.323497432E1,2.267245352E-1,-5.044506192E-1,-2.101000845E-1
2.325164026E1,-1.288215518E-1,-5.980253220E-1,-2.770753801E-1
2.326830620E1,-5.192118883E-1,-5.303736329E-1,-2.305676639E-1
2.328497214E1,-7.107889056E-1,-3.578175604E-1,-1.047204658E-1
2.330163807E1,-8.176890016E-1,-1.074226946E-1,4.807522520E-2
2.331830401E1,-1.120868444E0,2.718629837E-1,2.312369347E-1
2.333496995E1,-1.631248116E0,7.075663209E-1,4.126984477E-1
2.335163589E1,-2.121541023E0,1.065180540E0,5.033635497E-1
2.336830182E1,-2.537048817E0,1.419131398E0,4.623458087E-1
2.338496776E1,-2.968779325E0,1.873103857E0,3.391005695E-1
2.340163370E1,-3.354568958E0,2.093662024E0,2.711916566E-1
2.341829964E1,-3.568182468E0,1.719403982E0,2.885224521E-1
2.343496557E1,-3.416670561E0,7.877265811E-1,4.228047431E-1
2.345163151E1,-2.935568810E0,-3.362791836E-1,7.150679827E-1
2.346829745E1,-2.354432583E0,-1.272846460E0,1.110406637E0
2.348496339E1,-1.913062453E0,-1.952149630E0,1.305688620E0
2.350162932E1,-1.591642618E0,-2.200556278E0,1.201745868E0
2.351829526E1,-1.179103613E0,-1.777851462E0,9.415642023E-1
2.353496120E1,-5.814079046E-1,-5.223163366E-1,6.943790913E-1
2.355162714E1,-1.195405573E-1,1.011695504E0,5.050572753E-1
2.356829307E1,1.578881443E-1,1.980469584E0,4.528698623E-1
2.358495901E1,5.125023127E-1,1.493510842E0,5.051054955E-1
2.360162495E1,2.267711312E-1,-1.765746951E0,7.131925821E-1
2.361829089E1,-6.635470390E-1,-3.074867249E0,1.273276567E0
2.363495682E1,-1.200049758E0,-1.068287134E0,1.923089623E0
2.365162276E1,-1.532298923E0,1.272050261E0,2.343388081E0
2.366828870E1,-1.762903333E0,2.451809645E0,2.461070299E0
2.368495464E1,-1.954673171E0,2.496480703E0,2.393211603E0
2.370162057E1,-2.029015541E0,1.823166132E0,2.207060337E0
2.371828651E1,-1.863246679E0,7.808577418E-1,1.919923425E0
2.373495245E1,-1.400592685E0,2.758571506E-1,1.529039979E0
2.375161839E1,-9.239352345E-1,3.277610540E-1,1.138208985E0
2.376828432E1,-6.439117193E-1,4.214941263E-1,8.913908005E-1
2.378495026E1,-5.139247179E-1,3.886030316E-1,8.035945892E-1
2.380161620E1,-4.224347770E-1,4.791211784E-1,8.077803850E-1
2.381828214E1,-2.562571764E-1,5.731136799E-1,8.170067072E-1
2.383494807E1,-5.303169787E-2,5.043207407E-1,8.027230501E-1
2.385161401E1,1.093900353E-1,4.563536644E-1,7.610766888E-1
2.386827995E1,2.919177711E-1,5.039303303E-1,6.843634844E-1
2.388494589E1,5.541380048E-1,5.256032348E-1,5.792557001E-1
2.390161182E1,8.804159760E-1,3.999196291E-1,4.846183956E-1
2.391827776E1,1.242932677E0,2.198535949E-1,3.840539753E-1
2.393494370E1,1.599031687E0,5.419353396E-2,2.660677135E-1
2.395160964E1,1.930463076E0,-4.038296267E-2,1.012948751E-1
2.396827557E1,2.110613823E0,-2.309901863E-1,-8.058596402E-2
2.398494151E1,1.543088198E0,-1.350798011E0,-7.298803329E-2
2.400160745E1,8.751509190E-1,-1.563299894E0,6.835144162E-1
2.401827339E1,1.329146266E0,8.276119828E-2,1.295030713E0
2.403493932E1,1.719753623E0,8.335907459E-1,6.724544764E-1
2.405160526E1,1.699280381E0,2.786818147E-1,-1.224363372E-1
2.406827120E1,1.393080354E0,-5.939211249E-1,-6.585868597E-1
2.408493714E1,1.110748649E0,-3.393025398E-1,-1.097491384E0
2.410160307E1,9.921770692E-1,7.115259767E-1,-1.394552588E0
2.411826901E1,9.053969383E-1,1.683804870E0,-1.463335276E0
2.413493495E1,8.252295852E-1,1.905849338E0,-1.246431708E0
2.415160089E1,8.166546226E-1,1.613870025E0,-8.004958630E-1
2.416826682E1,8.843976855E-1,1.244256139E0,-3.200677037E-1
2.418493276E1,9.466879964E-1,9.141790867E-1,-1.911995560E-2
2.420159870E1,9.926113486E-1,6.452734470E-1,5.319701880E-2
2.421826464E1,1.017455459E0,4.313670993E-1,-1.332553104E-2
2.423493057E1,1.001295090E0,2.259536684E-1,-1.088939980E-1
2.425159651E1,9.979887009E-1,1.981166191E-2,-1.943649948E-1
2.426826245E1,1.072857499E0,-1.574738324E-1,-2.873918712E-1
2.428492839E1,1.161793828E0,-2.466154099E-1,-3.804185688E-1
2.430159432E1,1.135963202E0,-2.608622909E-1,-4.737893343E-1
2.431826026E1,9.704710841E-1,-3.777495027E-1,-5.911148787E-1
2.433492620E1,7.883068919E-1,-5.712993145E-1,-7.072156668E-1
2.435159214E1,6.731316447E-1,-6.456062794E-1,-7.827852964E-1
2.436825807E1,6.420578361E-1,-6.287502050E-1,-8.075447083E-1
2.438492401E1,6.927227378E-1,-6.194096208E-1,-7.795522213E-1
2.440158995E1,7.988668084E-1,-6.202576756E-1,-7.320589423E-1
2.441825589E1,9.091882706E-1,-5.850614309E-1,-6.721233726E-1
2.443492182E1,9.592161775E-1,-5.527574420E-1,-5.943261981E-1
2.445158776E1,9.387204051E-1,-5.177553296E-1,-5.065547824E-1
2.446825370E1,8.453065753E-1,-4.060712457E-1,-4.286015630E-1
2.448491964E1,7.053413987E-1,-2.855967879E-1,-3.602169454E-1
2.450158557E1,5.963212848E-1,-2.561198771E-1,-2.774665058E-1
2.451825151E1,5.714232326E-1,-2.916504741E-1,-1.630411446E-1
2.453491745E1,5.989381671E-1,-3.660463691E-1,-6.846122444E-2
2.455158339E1,5.959177017E-1,-4.001388550E-1,-2.975122631E-2
2.456824932E1,5.578400493E-1,-3.590576649E-1,-2.847574651E-2
2.458491526E1,5.635415912E-1,-2.836973667E-1,-2.450576052E-2
2.460158120E1,6.395180821E-1,-1.895314604E-1,-2.397247031E-2
2.461824714E1,7.092674375E-1,-8.266280591E-2,-6.097480655E-2
2.463491307E1,6.315321326E-1,1.803250797E-2,-1.450978816E-1
2.465157901E1,3.984677792E-1,7.516331971E-4,-2.377396822E-1
2.466824495E1,1.560763568E-1,-2.007648796E-1,-3.069557846E-1
2.468491089E1,1.324915793E-2,-4.690324664E-1,-3.508637846E-1
2.470157682E1,-6.524076313E-2,-5.773536563E-1,-3.869961202E-1
2.471824276E1,-1.182846576E-1,-4.894113839E-1,-3.981298506E-1
2.473490870E1,-1.056816652E-1,-4.523915052E-1,-3.690785766E-1
2.475157464E1,-3.137953207E-2,-5.344883800E-1,-3.267710805E-1
2.476824057E1,-2.014384791E-2,-6.331000924E-1,-2.648323476E-1
2.478490651E1,-1.508584917E-1,-6.687029004E-1,-2.005661130E-1
2.480157245E1,-3.525447547E-1,-6.926416755E-1,-1.453856826E-1
2.481823839E1,-4.535604119E-1,-8.589534760E-1,-1.264853477E-1
2.483490432E1,-3.414646089E-1,-1.251259804E0,-1.813481152E-1
2.485157026E1,-6.506852806E-2,-1.689854741E0,-3.240718246E-1
2.486823620E1,1.448769122E-1,-1.745863557E0,-5.112964511E-1
2.488490214E1,1.632966995E-1,-1.181147456E0,-5.893634558E-1
2.490156807E1,1.553597003E-1,-2.031719834E-1,-4.292688668E-1
2.491823401E1,1.782930791E-1,7.880337238E-1,-9.407987446E-2
2.493489995E1,7.993710786E-2,1.337677121E0,2.566359043E-1
2.495156589E1,-2.331558317E-1,1.371549010E0,4.661747515E-1
2.496823182E1,-6.309118867E-1,1.101562619E0,3.924878240E-1
2.498489776E1,-9.119135737E-1,6.224271655E-1,1.497860551E-1
2.500156370E1,-1.053814054E0,8.823681623E-2,-1.969815046E-2
2.501822964E1,-1.215473771E0,-3.334689438E-1,-7.119108737E-2
2.503489557E1,-1.555572391E0,-3.192716241E-1,-6.089970469E-2
2.505156151E1,-1.935653090E0,4.787562042E-2,1.926313154E-2
2.506822745E1,-2.144303799E0,4.129832983E-1,1.743000448E-1
2.508489339E1,-2.122363806E0,5.194588304E-1,3.517173827E-1
2.510155932E1,-1.899333596E0,4.173234701E-1,4.712466300E-1
2.511822526E1,-1.683998823E0,2.115782946E-1,5.107280612E-1
2.513489120E1,-1.595958114E0,-8.076023310E-2,4.899841845E-1
2.515155714E1,-1.462855220E0,-3.923410773E-1,4.765977263E-1
2.516822307E1,-1.155696392E0,-6.969516277E-1,4.764344394E-1
2.518488901E1,-7.858499885E-1,-8.662539124E-1,4.873020351E-1
2.520155495E1,-4.754252136E-1,-8.820781708E-1,4.720767438E-1
2.521822089E1,-1.172033623E-1,-8.897857666E-1,4.154460728E-1
2.523488682E1,3.854272664E-1,-1.118179917E0,4.074975550E-1
2.525155276E1,7.747824192E-1,-1.746130347E0,5.807617307E-1
2.526821870E1,5.644056797E-1,-2.987670183E0,9.472142458E-1
2.528488464E1,-1.537757516E-1,-3.549858570E0,1.384493232E0
2.530155057E1,-7.258133888E-1,-2.730881691E0,1.726246476E0
2.531821651E1,-9.899315238E-1,-1.213204622E0,1.904752612E0
2.533488245E1,-1.079470396E0,3.829928041E-1,1.948462248E0
2.535154839E1,-1.175444722E0,1.341116071E0,1.924501061E0
2.536821432E1,-1.260895371E0,1.389854789E0,1.883864284E0
2.538488026E1,-1.183984399E0,9.274404645E-1,1.795564771E0
2.540154620E1,-8.214450479E-1,4.371336102E-1,1.562969089E0
2.541821214E1,-2.660564780E-1,1.219813004E-1,1.140413284E0
2.543487807E1,2.311599851E-1,3.984036669E-2,6.567478776E-1
2.545154401E1,5.072653890E-1,1.805116832E-1,3.297370970E-1
2.546820995E1,5.947656035E-1,3.740063608E-1,1.770066619E-1
2.548487589E1,6.241662502E-1,5.130264759E-1,2.250758931E-2
2.550154182E1,7.493725419E-1,6.534883976E-1,-2.014082074E-1
2.551820776E1,9.641821384E-1,7.988429666E-1,-4.260755479E-1
2.553487370E1,1.127223253E0,1.015169501E0,-6.338747740E-1
2.555153964E1,1.085194707E0,1.186346292E0,-7.832886577E-1
2.556820557E1,8.451771140E-1,4.633224905E-1,-5.931980610E-1
2.558487151E1,7.686442733E-1,-5.581559539E-1,3.451268002E-2
2.560153745E1,9.024959207E-1,-7.732916474E-1,2.220400572E-1
2.561820339E1,9.154574871E-1,2.868078649E-1,-2.582744956E-1
2.563486932E1,8.536708951E-1,1.172922015E0,-7.677457333E-1
2.565153526E1,7.272813320E-1,1.152361035E0,-1.125888944E0
2.566820120E1,5.459725261E-1,1.285384297E0,-1.200009704E0
2.568486714E1,4.378927350E-1,1.734263182E0,-9.665015340E-1
2.570153307E1,4.608692527E-1,1.866143584E0,-6.039720774E-1
2.571819901E1,5.734449029E-1,1.432136297E0,-3.446554840E-1
2.573486495E1,6.585758924E-1,8.252307773E-1,-1.809856892E-1
2.575153089E1,6.787924767E-1,4.770548046E-1,-6.155751646E-2
2.576819682E1,6.355494857E-1,3.998469710E-1,-1.300799474E-2
2.578486276E1,5.723984241E-1,4.195922315E-1,-2.909818292E-2
2.580152870E1,5.502462983E-1,3.761892915E-1,-8.306205273E-2
2.581819464E1,5.732674599E-1,3.478939235E-1,-2.053201497E-1
2.583486057E1,6.376199722E-1,3.292586207E-1,-3.604014218E-1
2.585152651E1,7.644042373E-1,2.537836730E-1,-4.496345222E-1
2.586819245E1,8.983401656E-1,-2.311517950E-3,-4.482190013E-1
2.588485839E1,9.561967254E-1,-2.911023200E-1,-3.955915570E-1
2.590152432E1,9.439712167E-1,-4.145918489E-1,-3.435873091E-1
2.591819026E1,8.897569776E-1,-4.950447977E-1,-3.605094254E-1
2.593485620E1,8.356921673E-1,-5.609692335E-1,-4.401446879E-1
2.595152214E1,7.722110748E-1,-5.558376312E-1,-5.174512863E-1
2.596818807E1,7.366518974E-1,-4.823805392E-1,-5.593902469E-1
2.598485401E1,7.305271029E-1,-4.124790430E-1,-5.631613135E-1
2.600151995E1,6.920006871E-1,-3.630003035E-1,-5.404384136E-1
2.601818589E1,5.917000175E-1,-2.915687561E-1,-4.778097868E-1
2.603485182E1,4.491899014E-1,-1.519975513E-1,-3.765518367E-1
2.605151776E1,3.534376919E-1,-1.230915710E-1,-2.645793259E-1
2.606818370E1,3.161651194E-1,-2.661870420E-1,-1.511199474E-1
2.608484964E1,3.295848966E-1,-4.509826005E-1,-3.298411518E-2
2.610151557E1,4.159947634E-1,-6.082704067E-1,6.846807152E-2
2.611818151E1,5.699753761E-1,-6.265990138E-1,1.200851724E-1
2.613484745E1,6.822581887E-1,-5.004346967E-1,1.074798778E-1
2.615151339E1,7.501282096E-1,-2.905958891E-1,7.603493333E-2
2.616817932E1,7.918515801E-1,-3.227385506E-2,5.156591907E-2
2.618484526E1,7.475566268E-1,1.891144365E-1,1.712486334E-2
2.620151120E1,5.994088650E-1,2.004565895E-1,-6.931933761E-2
2.621817714E1,3.974374831E-1,-1.024564542E-2,-1.851328611E-1
2.623484307E1,1.923461854E-1,-2.495114803E-1,-2.884714305E-1
2.625150901E1,6.196473539E-2,-3.513996601E-1,-3.731346428E-1
2.626817495E1,-6.630625576E-2,-4.632416070E-1,-4.682326913E-1
2.628484089E1,-2.447505593E-1,-5.886778831E-1,-5.542145967E-1
2.630150682E1,-4.004714191E-1,-6.769738793E-1,-5.973641872E-1
2.631817276E1,-4.700087905E-1,-6.706215739E-1,-6.020240188E-1
2.633483870E1,-4.563404918E-1,-5.781251788E-1,-5.816606283E-1
2.635150464E1,-4.194556475E-1,-5.242119431E-1,-5.373937488E-1
2.636817057E1,-4.287896156E-1,-6.050251722E-1,-4.619655907E-1
2.638483651E1,-4.088374078E-1,-8.301087022E-1,-3.647931218E-1
2.640150245E1,-2.993230224E-1,-1.172417402E0,-2.958690822E-1
2.641816839E1,-1.448566914E-1,-1.344533205E0,-2.795700133E-1
2.643483432E1,-1.536407042E-2,-1.052449346E0,-2.760391533E-1
2.645150026E1,6.053933874E-2,-3.752925396E-1,-2.060708106E-1
2.646816620E1,1.078770310E-1,3.122203052E-1,-4.178740829E-2
2.648483214E1,1.512973011E-1,6.751205921E-1,1.884053648E-1
2.650149807E1,6.406870484E-2,7.581096292E-1,3.669032753E-1
2.651816401E1,-2.104826272E-1,6.859554648E-1,3.769775927E-1
2.653482995E1,-5.399609208E-1,4.719444215E-1,2.101036012E-1
2.655149589E1,-8.233268261E-1,2.121684998E-1,-5.195564777E-2
2.656816182E1,-1.021557808E0,-8.368636481E-4,-2.649235129E-1
2.658482776E1,-1.096666455E0,-8.017972112E-2,-2.832933962E-1
2.660149370E1,-1.147414088E0,3.698045015E-2,-1.446656585E-1
2.661815964E1,-1.350643754E0,3.703148961E-1,1.652037725E-2
2.663482557E1,-1.662177444E0,8.083052039E-1,1.910619140E-1
2.665149151E1,-1.856599569E0,1.141793609E0,3.359500468E-1
2.666815745E1,-1.818063855E0,1.166529775E0,4.084426761E-1
2.668482339E1,-1.543408513E0,7.552970052E-1,3.892040551E-1
2.670148932E1,-1.198995948E0,-4.007629678E-2,3.736332357E-1
2.671815526E1,-1.020906210E0,-8.274763227E-1,4.335141778E-1
2.673482120E1,-9.736061692E-1,-1.295465827E0,6.040363312E-1
2.675148714E1,-1.038719773E0,-1.340245843E0,8.728225231E-1
2.676815307E1,-1.225983381E0,-1.043329120E0,1.033364296E0
2.678481901E1,-1.317423224E0,-7.644271255E-1,9.720264673E-1
2.680148495E1,-1.080285192E0,-7.879381776E-1,8.031475544E-1
2.681815089E1,-6.413902640E-1,-9.697598815E-1,7.140004635E-1
2.683481682E1,-2.382492423E-1,-9.954864979E-1,7.313726544E-1
2.685148276E1,-9.191628546E-3,-6.685149670E-1,7.707844377E-1
2.686814870E1,1.065472979E-2,-1.431346685E-1,7.963413000E-1
2.688481464E1,-1.808763146E-1,-5.549214780E-2,8.043287396E-1
2.690148057E1,-6.736453176E-1,-9.874988198E-1,8.479982615E-1
2.691814651E1,-1.114633322E0,-1.367236018E0,9.582150578E-1
2.693481245E1,-1.214408994E0,-7.758021951E-1,1.078575253E0
2.695147839E1,-1.056904793E0,1.560231298E-1,1.176875949E0
2.696814432E1,-7.960682511E-1,6.812062263E-1,1.238038898E0
2.698481026E1,-5.835184455E-1,5.992940068E-1,1.216537118E0
2.700147620E1,-4.484960735E-1,2.431672961E-1,1.096980214E0
2.701814214E1,-3.239721954E-1,-1.043997556E-1,9.020123482E-1
2.703480807E1,-1.844171286E-1,-2.901616693E-1,6.741600037E-1
2.705147401E1,-4.841610417E-2,-2.741124034E-1,4.589459598E-1
2.706813995E1,9.685952961E-2,-6.619671732E-2,3.039116561E-1
2.708480589E1,2.874586582E-1,3.138709664E-1,2.127926350E-1
2.710147182E1,5.347827077E-1,4.982258081E-1,6.574428082E-2
2.711813776E1,7.825658321E-1,5.126819611E-1,-1.385249496E-1
2.713480370E1,9.902606010E-1,6.391745210E-1,-3.425279558E-1
2.715146964E1,1.092499018E0,8.692836165E-1,-5.616906881E-1
2.716813557E1,1.055823803E0,5.592477918E-1,-6.662303805E-1
2.718480151E1,9.538729191E-1,-6.033465266E-1,-2.064478397E-1
2.720146745E1,1.137091875E0,-5.728079677E-1,3.659327328E-1
2.721813339E1,9.289832115E-1,6.046734452E-1,2.105617821E-1
2.723479932E1,7.888891101E-1,1.863579512E0,-2.207859159E-1
2.725146526E1,1.058563471E0,1.824688196E0,-6.366982460E-1
2.726813120E1,1.078476548E0,1.281961679E0,-8.499506712E-1
2.728479714E1,6.567922235E-1,1.432978988E0,-8.138515353E-1
2.730146307E1,3.469066024E-1,1.641072989E0,-6.325999498E-1
2.731812901E1,2.959179282E-1,1.566499472E0,-3.740418255E-1
2.733479495E1,2.717896700E-1,1.342452407E0,-1.236971095E-1
2.735146089E1,1.882567555E-1,1.098027468E0,3.552665561E-2
2.736812682E1,1.275908053E-1,8.887767792E-1,9.596341848E-2
2.738479276E1,1.559445858E-1,6.572890878E-1,5.994627625E-2
2.740145870E1,2.508122623E-1,3.292001486E-1,-4.203420132E-3
2.741812464E1,3.611239791E-1,4.359139502E-2,-2.218962833E-2
2.743479057E1,5.368047357E-1,-1.120924577E-1,-3.290839493E-2
2.745145651E1,7.814968228E-1,-1.145813018E-1,-7.984077930E-2
2.746812245E1,1.024242640E0,-1.966340654E-2,-1.439417601E-1
2.748478839E1,1.183966279E0,-6.699017715E-3,-1.956176758E-1
2.750145432E1,1.211827159E0,-1.315162629E-1,-2.456119955E-1
2.751812026E1,1.136084437E0,-2.916048467E-1,-3.662643135E-1
2.753478620E1,9.696063995E-1,-3.889631033E-1,-5.455331802E-1
2.755145214E1,7.638005614E-1,-4.045859575E-1,-6.589630842E-1
2.756811807E1,6.029201150E-1,-4.115492105E-1,-6.547839046E-1
2.758478401E1,5.481780171E-1,-4.653511643E-1,-5.760042071E-1
2.760144995E1,5.526310802E-1,-4.845829606E-1,-4.768700004E-1
2.761811589E1,5.305930972E-1,-4.034336209E-1,-3.852193654E-1
2.763478182E1,4.564822912E-1,-3.106087446E-1,-3.038817346E-1
2.765144776E1,3.655834198E-1,-3.110313416E-1,-2.017307878E-1
2.766811370E1,3.360425830E-1,-4.589643776E-1,-6.853477657E-2
2.768477964E1,3.927503228E-1,-6.009824276E-1,4.453201964E-2
2.770144557E1,5.142514706E-1,-6.628847718E-1,1.101159900E-1
2.771811151E1,6.709836125E-1,-5.770078301E-1,1.415049732E-1
2.773477745E1,8.019908071E-1,-3.567144275E-1,1.448713392E-1
2.775144339E1,8.550912738E-1,-9.995009750E-2,1.228570640E-1
2.776810932E1,8.003987670E-1,4.409687966E-2,5.264680833E-2
2.778477526E1,6.959013343E-1,1.287862472E-2,-6.133994460E-2
2.780144120E1,6.013329625E-1,-1.261467487E-1,-1.416499615E-1
2.781810714E1,4.818044007E-1,-2.756476700E-1,-1.576542854E-1
2.783477307E1,3.216697574E-1,-3.775234818E-1,-1.617397666E-1
2.785143901E1,1.824274063E-1,-4.620143175E-1,-1.810199022E-1
2.786810495E1,9.885934740E-2,-5.091751218E-1,-2.087754309E-1
2.788477089E1,9.845905006E-2,-5.558244586E-1,-2.236774564E-1
2.790143682E1,1.685142070E-1,-5.921044946E-1,-2.488026023E-1
2.791810276E1,2.473242432E-1,-5.269641876E-1,-2.721948326E-1
2.793476870E1,2.719932199E-1,-3.626249135E-1,-2.984079719E-1
2.795143464E1,2.395683676E-1,-1.975414008E-1,-3.684214652E-1
2.796810057E1,1.694418341E-1,-3.795993701E-2,-4.687650204E-1
2.798476651E1,4.376902804E-2,-9.331377596E-2,-5.542138815E-1
2.800143245E1,-1.149247959E-1,-3.964036703E-1,-5.516904593E-1
2.801809839E1,-3.038205504E-1,-7.755491734E-1,-4.795210958E-1
2.803476432E1,-4.973930418E-1,-8.919003010E-1,-4.097507894E-1
2.805143026E1,-5.706092715E-1,-8.515753150E-1,-3.781451583E-1
2.806809620E1,-4.212842882E-1,-8.792220950E-1,-3.770847917E-1
2.808476214E1,-6.509916484E-2,-8.380756378E-1,-3.780283630E-1
2.810142807E1,2.959124148E-1,-4.266338944E-1,-3.356332183E-1
2.811809401E1,4.037327766E-1,2.964090109E-1,-1.915046871E-1
2.813475995E1,2.242874056E-1,1.019985318E0,5.812384933E-2
2.815142589E1,-1.090883240E-1,1.525467515E0,2.643779516E-1
2.816809182E1,-4.697795510E-1,1.639772177E0,3.150801063E-1
2.818475776E1,-7.454974651E-1,1.285608411E0,2.244861126E-1
2.820142370E1,-9.129489064E-1,6.982670426E-1,1.116831452E-1
2.821808964E1,-1.026660323E0,1.863622814E-1,7.211048156E-2
2.823475557E1,-1.280758858E0,-8.319425583E-2,6.701935828E-2
2.825142151E1,-1.738706470E0,-9.748025984E-2,-7.545836270E-4
2.826808745E1,-2.173506260E0,1.082044318E-1,-1.428189874E-1
2.828475339E1,-2.346889496E0,3.956333995E-1,-2.448629439E-1
2.830141932E1,-2.254920006E0,5.646703839E-1,-1.895993948E-1
2.831808526E1,-2.021794319E0,4.743164480E-1,3.755854443E-2
2.833475120E1,-1.861948609E0,1.868282855E-1,3.714467883E-1
2.835141714E1,-1.792500615E0,-1.322075874E-1,6.746388078E-1
2.836808307E1,-1.674047828E0,-4.060224295E-1,8.449320793E-1
2.838474901E1,-1.376455903E0,-6.720399857E-1,8.902717829E-1
2.840141495E1,-1.013301969E0,-7.664132118E-1,9.044926763E-1
2.841808089E1,-7.527458668E-1,-7.487106919E-1,8.736473322E-1
2.843474682E1,-5.177470446E-1,-8.900966644E-1,7.657492757E-1
2.845141276E1,-1.130987927E-1,-1.245595098E0,5.858989954E-1
2.846807870E1,4.156206846E-1,-1.470690846E0,4.277637303E-1
2.848474464E1,7.721794248E-1,-1.263746858E0,4.521192610E-1
2.850141057E1,7.905633450E-1,-8.674449325E-1,6.044154763E-1
2.851807651E1,3.935078681E-1,-7.714574933E-1,7.695068121E-1
2.853474245E1,-3.208805323E-1,-8.696764112E-1,8.778430223E-1
2.855140839E1,-9.196214080E-1,-4.549510777E-1,9.281082153E-1
2.856807432E1,-1.216797948E0,4.739564657E-1,9.292641282E-1
2.858474026E1,-1.224335432E0,1.390885234E0,8.973404169E-1
2.860140620E1,-1.023115993E0,1.825672746E0,8.413342237E-1
2.861807214E1,-7.314847112E-1,1.645741224E0,7.612853646E-1
2.863473807E1,-4.054532051E-1,1.036523819E0,6.400247812E-1
2.865140401E1,-9.001623094E-2,2.983086705E-1,4.786376357E-1
2.866806995E1,1.728612781E-1,-1.942845285E-1,3.439783752E-1
2.868473589E1,3.349989951E-1,-3.367868960E-1,2.660709620E-1
2.870140182E1,3.870417178E-1,-2.636138499E-1,2.429807782E-1
2.871806776E1,3.800740540E-1,7.941515744E-2,2.315297723E-1
2.873473370E1,4.102810621E-1,5.824577212E-1,1.296112239E-1
2.875139964E1,5.320544839E-1,8.533608913E-1,-4.152187705E-2
2.876806557E1,6.515832543E-1,8.281592727E-1,-1.998366714E-1
2.878473151E1,6.552758217E-1,7.033681273E-1,-3.882436454E-1
2.880139745E1,5.498496890E-1,5.936675668E-1,-5.920560360E-1
2.881806339E1,6.424266696E-1,-1.621630937E-1,-5.306854248E-1
2.883472932E1,1.148674726E0,-1.264945745E0,-8.259688318E-2
2.885139526E1,1.224968314E0,-7.379007936E-1,1.931384504E-1
2.886806120E1,7.455039620E-1,9.911792278E-1,1.001999527E-1
2.888472714E1,4.117326140E-1,1.522329688E0,-1.309115291E-1
2.890139307E1,5.749233365E-1,7.261075377E-1,-3.642092049E-1
2.891805901E1,6.963716149E-1,2.420085818E-1,-5.585830808E-1
2.893472495E1,7.230176926E-1,2.655615807E-1,-6.981484294E-1
2.895139089E1,7.415712476E-1,4.276600480E-1,-7.438563108E-1
2.896805682E1,6.480649114E-1,7.071751952E-1,-6.724457145E-1
2.898472276E1,4.945744276E-1,1.003960133E0,-4.595023096E-1
2.900138870E1,4.460790753E-1,1.125842094E0,-1.464506388E-1
2.901805464E1,4.938721955E-1,1.041818857E0,1.197541729E-1
2.903472057E1,5.382664800E-1,8.339814544E-1,2.365413904E-1
2.905138651E1,5.331485271E-1,5.742948651E-1,2.218594253E-1
2.906805245E1,5.180368423E-1,3.444837332E-1,1.744562984E-1
2.908471839E1,5.194309354E-1,1.723145545E-1,1.480917037E-1
2.910138432E1,5.547527671E-1,1.298284233E-1,8.673930168E-2
2.911805026E1,6.487487555E-1,1.781707704E-1,-2.989570796E-2
2.913471620E1,7.267143130E-1,2.288223207E-1,-1.877499223E-1
2.915138214E1,7.448238730E-1,2.672789097E-1,-3.224492967E-1
2.916804807E1,7.588951588E-1,2.252740711E-1,-3.622537255E-1
2.918471401E1,8.099577427E-1,-4.736798257E-2,-3.040512204E-1
2.920137995E1,8.875906467E-1,-3.748401403E-1,-1.941895485E-1
2.921804589E1,9.318885207E-1,-5.079712272E-1,-1.059207395E-1
2.923471182E1,9.212965369E-1,-4.826865196E-1,-8.029647171E-2
2.925137776E1,8.846425414E-1,-4.336520433E-1,-1.050321385E-1
2.926804370E1,8.490316868E-1,-4.278720915E-1,-1.408683062E-1
2.928470964E1,7.786913514E-1,-4.790642262E-1,-1.721091568E-1
2.930137557E1,6.785809994E-1,-4.465243816E-1,-1.974850595E-1
2.931804151E1,5.502591133E-1,-3.482457697E-1,-2.146506608E-1
2.933470745E1,4.439349473E-1,-3.160606623E-1,-2.235055566E-1
2.935137339E1,4.515230060E-1,-4.304360747E-1,-2.150296271E-1
2.936803932E1,5.980312824E-1,-6.210166216E-1,-2.012798488E-1
2.938470526E1,7.527913451E-1,-7.265346646E-1,-1.806046963E-1
2.940137120E1,8.052580357E-1,-6.329979897E-1,-1.418338120E-1
2.941803714E1,7.681221962E-1,-3.672172427E-1,-8.976290375E-2
2.943470307E1,7.000772953E-1,-1.596329547E-2,-4.815269262E-2
2.945136901E1,6.494590640E-1,2.024051845E-1,-4.878915846E-2
2.946803495E1,5.547779202E-1,1.206838638E-1,-9.080298990E-2
2.948470089E1,4.134067297E-1,-1.371113211E-1,-1.244878396E-1
2.950136682E1,2.479005456E-1,-2.948078215E-1,-1.500476301E-1
2.951803276E1,8.953120559E-2,-3.496803343E-1,-1.679871678E-1
2.953469870E1,1.019691769E-2,-3.731049299E-1,-2.083896995E-1
2.955136464E1,2.920379490E-2,-3.724352419E-1,-2.819447815E-1
2.956803057E1,1.013474986E-1,-2.612637579E-1,-3.448489010E-1
2.958469651E1,1.698014140E-1,-2.161611803E-2,-3.385808766E-1
2.960136245E1,2.121296525E-1,1.513187438E-1,-2.743674219E-1
2.961802839E1,2.152335942E-1,2.032510936E-1,-2.406051457E-1
2.963469432E1,1.910435259E-1,1.873896867E-1,-2.525478005E-1
2.965136026E1,1.625086367E-1,1.192331463E-1,-2.678708136E-1
2.966802620E1,1.182153374E-1,-9.218703955E-3,-2.570163310E-1
2.968469214E1,6.093335152E-2,-1.746524125E-1,-2.484981716E-1
2.970135807E1,-2.328212932E-2,-3.194126189E-1,-3.064020276E-1
2.971802401E1,-4.626860097E-2,-2.523609698E-1,-3.904982209E-1
2.973468995E1,7.405523211E-2,6.053045765E-2,-4.584913552E-1
2.975135589E1,1.764611006E-1,4.744035006E-1,-4.447464049E-1
2.976802182E1,5.843915045E-2,7.618690133E-1,-3.041674495E-1
2.978468776E1,-1.575847566E-1,7.557513118E-1,-7.560275495E-2
2.980135370E1,-2.663757801E-1,5.008699894E-1,1.411893070E-1
2.981801964E1,-2.546605766E-1,1.519882530E-1,2.294560075E-1
2.983468557E1,-1.493304670E-1,-1.793810427E-1,1.785670221E-1
2.985135151E1,6.971863657E-2,-4.099206924E-1,6.037904322E-2
2.986801745E1,2.986221910E-1,-4.271722436E-1,-4.295714200E-2
2.988468339E1,3.366699219E-1,-2.665949464E-1,-4.182094336E-2
2.990134932E1,7.688461244E-2,-7.852476090E-2,1.211525127E-1
2.991801526E1,-4.269117117E-1,9.451784194E-2,3.148294389E-1
2.993468120E1,-1.044196367E0,3.704441786E-1,2.088252902E-1
2.995134714E1,-1.624528646E0,8.690366149E-1,-2.735619247E-2
2.996801307E1,-2.047059059E0,1.440360785E0,-1.925036311E-1
2.998467901E1,-2.215814114E0,1.881101012E0,-2.425735295E-1
3.000134495E1,-2.106983185E0,2.100659370E0,-1.802445352E-1
3.001801089E1,-1.766524673E0,2.100338459E0,-1.979503408E-2
3.003467682E1,-1.288233161E0,1.841004729E0,2.086654603E-1
3.005134276E1,-8.215646744E-1,1.291420341E0,4.326046407E-1
3.006800870E1,-5.657228231E-1,6.666937470E-1,5.561013222E-1
3.008467464E1,-6.053317189E-1,3.510645330E-1,5.960320234E-1
3.010134057E1,-7.716803551E-1,4.196963012E-1,6.110897660E-1
3.011800651E1,-8.878888488E-1,6.292971969E-1,5.982527733E-1
3.013467245E1,-9.055787921E-1,7.418044209E-1,5.661361217E-1
3.015133839E1,-7.879030704E-1,6.931455135E-1,5.595285892E-1
3.016800432E1,-5.304452777E-1,4.826320112E-1,6.024957895E-1
3.018467026E1,-2.149438560E-1,2.327166051E-1,6.893208623E-1
3.020133620E1,5.742174014E-2,1.506123394E-1,7.456656694E-1
3.021800214E1,2.354190946E-1,2.961261868E-1,7.316964865E-1
3.023466807E1,3.002697527E-1,4.675378799E-1,6.691571474E-1
3.025133401E1,2.616592050E-1,5.169458389E-1,5.753305554E-1
3.026799995E1,1.991830468E-1,3.856304288E-1,4.673444629E-1
3.028466589E1,1.906988323E-1,1.018945649E-1,3.762680888E-1
3.030133182E1,2.344037890E-1,-1.821253002E-1,3.161103427E-1
3.031799776E1,2.938905656E-1,-3.455510139E-1,2.868686616E-1
3.033466370E1,3.327078223E-1,-3.065799773E-1,3.047781587E-1
3.035132964E1,3.134634495E-1,-3.244305030E-2,3.688100576E-1
3.036799557E1,2.045407891E-1,4.202587605E-1,4.517941177E-1
3.038466151E1,3.491040692E-2,8.720330596E-1,5.002430081E-1
3.040132745E1,-1.128223613E-1,1.119994044E0,4.569196403E-1
3.041799339E1,-1.653481573E-1,1.133812666E0,3.299732506E-1
3.043465932E1,-8.812568337E-2,1.024575353E0,1.973774135E-1
3.045132526E1,7.502379268E-2,9.299973845E-1,1.404635012E-1
3.046799120E1,2.527629435E-1,9.062972069E-1,1.660361588E-1
3.048465714E1,4.039506316E-1,9.141342640E-1,2.515457571E-1
3.050132307E1,5.041574836E-1,8.971900344E-1,3.385208249E-1
3.051798901E1,5.565766096E-1,8.870108128E-1,3.735312521E-1
3.053465495E1,5.681926608E-1,9.297325611E-1,3.422536850E-1
3.055132089E1,5.336565375E-1,1.011374831E0,2.950091660E-1
3.056798682E1,4.609918594E-1,1.090616941E0,2.628385425E-1
3.058465276E1,3.892403841E-1,1.131209016E0,2.518370748E-1
3.060131870E1,3.407259285E-1,1.124053597E0,2.511106730E-1
3.061798464E1,3.321020901E-1,1.105761170E0,2.218649983E-1
3.063465057E1,3.628396094E-1,1.064710736E0,1.750170588E-1
3.065131651E1,4.040096104E-1,9.568212032E-1,1.638855040E-1
3.066798245E1,4.069840312E-1,7.916720510E-1,2.009734213E-1
3.068464839E1,3.715002835E-1,6.491360068E-1,2.775524259E-1
3.070131432E1,3.057962060E-1,6.263210177E-1,3.373840153E-1
3.071798026E1,2.254192829E-1,7.515011430E-1,3.360581100E-1
3.073464620E1,1.555416882E-1,9.607378840E-1,3.382907212E-1
3.075131214E1,1.071441323E-1,1.066418648E0,3.634136021E-1
3.076797807E1,9.455923736E-2,1.039201140E0,3.732788265E-1
3.078464401E1,1.458195150E-1,1.016454935E0,4.341823459E-1
3.080130995E1,2.139212787E-1,1.043297410E0,5.186978579E-1
3.081797589E1,2.250468880E-1,1.056208253E0,4.821485877E-1
3.083464182E1,1.292838901E-1,1.002088189E0,3.145590723E-1
3.085130776E1,-8.220843226E-2,7.909846902E-1,1.468347013E-1
3.086797370E1,-3.092307746E-1,3.552167416E-1,4.377624765E-2
3.088463964E1,-3.950158060E-1,-1.977291554E-1,3.401186317E-2
3.090130557E1,-2.617058158E-1,-8.059212565E-1,8.441077173E-2
3.091797151E1,-5.769912153E-3,-1.085931420E0,1.012746170E-1
3.093463745E1,2.550655603E-1,-6.269164085E-1,8.416626602E-2
3.095130339E1,6.052136421E-1,3.237094581E-1,1.155653447E-1
3.096796932E1,8.804056644E-1,1.148068786E0,1.379320323E-1
3.098463526E1,8.590639234E-1,1.606403589E0,1.257876158E-1
3.100130120E1,6.835913658E-1,1.749786735E0,1.016109288E-1
3.101796714E1,6.119884849E-1,1.661615252E0,4.220981523E-2
3.103463307E1,6.849161983E-1,1.487135053E0,-3.362847865E-2
3.105129901E1,7.443023324E-1,1.243640423E0,-6.421256810E-2
3.106796495E1,7.199037075E-1,9.026520252E-1,-1.737050340E-2
3.108463089E1,6.440497041E-1,5.454427004E-1,4.020493105E-2
3.110129682E1,5.197224021E-1,3.334212899E-1,6.909891963E-2
3.111796276E1,3.450681269E-1,2.864447236E-1,7.136040926E-2
3.113462870E1,1.719701886E-1,2.548248470E-1,3.110022843E-2
3.115129464E1,7.925235480E-2,1.799835116E-1,-3.044223785E-2
3.116796057E1,9.241084009E-2,1.563211828E-1,-8.233796060E-2
3.118462651E1,2.075919062E-1,2.659823895E-1,-1.353285611E-1
3.120129245E1,3.708655238E-1,4.826911688E-1,-1.795241237E-1
3.121795839E1,4.892731905E-1,6.903410554E-1,-2.015004158E-1
3.123462432E1,5.161632895E-1,7.802019119E-1,-1.984051466E-1
3.125129026E1,4.965066314E-1,7.561778426E-1,-1.873982251E-1
3.126795620E1,4.928479493E-1,6.907477379E-1,-1.774628758E-1
3.128462214E1,5.150663853E-1,5.978689194E-1,-1.324186623E-1
3.130128807E1,5.320408940E-1,5.032673478E-1,-6.080467999E-2
3.131795401E1,4.917012751E-1,4.776416719E-1,-3.663794696E-2
3.133461995E1,4.125630856E-1,4.835198522E-1,-6.653650105E-2
3.135128589E1,3.256894946E-1,4.324969649E-1,-1.174687967E-1
3.136795182E1,2.705689073E-1,3.129330873E-1,-1.720056534E-1
3.138461776E1,2.322274595E-1,2.350653112E-1,-2.275190651E-1
3.140128370E1,1.912356764E-1,2.370870560E-1,-2.634747922E-1
3.141794964E1,1.874683052E-1,3.213891983E-1,-2.620671391E-1
3.143461557E1,2.312086374E-1,4.608727694E-1,-2.504930198E-1
3.145128151E1,2.097611576E-1,6.220967174E-1,-2.541597486E-1
3.146794745E1,2.609170973E-2,7.371718884E-1,-2.505559623E-1
3.148461339E1,-2.087068856E-1,7.699596286E-1,-1.786092818E-1
3.150127932E1,-3.739209175E-1,6.532309055E-1,-4.577206075E-2
3.151794526E1,-5.687239766E-1,5.741493106E-1,7.268553972E-2
3.153461120E1,-7.596291900E-1,6.756298542E-1,1.875813007E-1
3.155127714E1,-8.646440506E-1,7.899444103E-1,3.243631423E-1
3.156794307E1,-9.976426363E-1,8.779729009E-1,4.569910467E-1
3.158460901E1,-1.256557345E0,1.144921660E0,5.307812095E-1
3.160127495E1,-1.529479742E0,1.592788100E0,5.595967174E-1
3.161794089E1,-1.707178354E0,1.988922000E0,5.687472820E-1
3.163460682E1,-1.845017791E0,2.101270199E0,5.705165863E-1
3.165127276E1,-1.916102648E0,1.896805644E0,5.801630616E-1
3.166793870E1,-1.827950239E0,1.556969523E0,6.179194450E-1
3.168460464E1,-1.612033486E0,1.224601388E0,6.837122440E-1
3.170127057E1,-1.360622048E0,9.990887046E-1,7.239401340E-1
3.171793651E1,-1.132463813E0,8.708989024E-1,7.118700743E-1
3.173460245E1,-9.487290978E-1,8.678708673E-1,6.854692101E-1
3.175126839E1,-8.397173882E-1,9.370673299E-1,6.755353808E-1
3.176793432E1,-7.043161988E-1,9.562795162E-1,7.028450370E-1
3.178460026E1,-4.067860246E-1,9.131796360E-1,7.710100412E-1
3.180126620E1,2.974240854E-2,8.367105126E-1,8.637431264E-1
3.181793214E1,4.515000582E-1,7.878525853E-1,9.803597927E-1
3.183459807E1,6.843127608E-1,8.938593268E-1,1.129319191E0
3.185126401E1,6.865689754E-1,1.169123530E0,1.296941161E0
3.186792995E1,5.362828374E-1,1.412679791E0,1.430954814E0
3.188459589E1,3.058125973E-1,1.466051459E0,1.494273305E0
3.190126182E1,7.466659695E-2,1.483016610E0,1.487247348E0
3.191792776E1,-6.379125267E-2,1.628681779E0,1.388626695E0
3.193459370E1,-7.632802427E-2,1.841509223E0,1.203723192E0
3.195125964E1,2.296036854E-2,1.981628180E0,9.792163968E-1
3.196792557E1,1.667382419E-1,1.979079366E0,7.562823296E-1
3.198459151E1,2.961319685E-1,1.878310323E0,6.169663668E-1
3.200125745E1,3.818588555E-1,1.767585993E0,5.995302200E-1
3.201792339E1,4.384939969E-1,1.696192145E0,6.316102147E-1
3.203458932E1,5.006000400E-1,1.633850813E0,6.370506287E-1
3.205125526E1,5.969920754E-1,1.528992057E0,5.800396204E-1
3.206792120E1,7.142226696E-1,1.395049214E0,4.835391939E-1
3.208458714E1,7.990227342E-1,1.374912620E0,4.246528745E-1
3.210125307E1,8.323500156E-1,1.597882390E0,4.326473773E-1
3.211791901E1,8.264810443E-1,1.981394172E0,4.825304151E-1
3.213458495E1,7.394168377E-1,2.296321869E0,5.667988658E-1
3.215125089E1,4.600988626E-1,2.394511461E0,6.923023462E-1
3.216791682E1,6.867441535E-2,2.205663681E0,8.039310575E-1
3.218458276E1,-2.276481390E-1,1.735937834E0,8.651823997E-1
3.220124870E1,-3.302558064E-1,1.288873672E0,8.459115028E-1
3.221791464E1,-2.537260652E-1,1.111803293E0,7.435368299E-1
3.223458057E1,-7.130128145E-2,1.185382962E0,6.347376108E-1
3.225124651E1,1.035220399E-1,1.355399847E0,5.731271505E-1
3.226791245E1,1.502702087E-1,1.486620069E0,5.581524968E-1
3.228457839E1,-6.868130527E-3,1.546992421E0,6.574000716E-1
3.230124432E1,-2.616304159E-1,1.426648498E0,8.104315996E-1
3.231791026E1,-4.873338342E-1,1.127027154E0,8.190989494E-1
3.233457620E1,-3.843419254E-1,9.084432125E-1,7.007476091E-1
3.235124214E1,4.466976523E-1,1.031976342E0,6.250830293E-1
3.236790807E1,1.390236974E0,1.515514135E0,5.764294863E-1
3.238457401E1,1.573509932E0,1.898393750E0,4.413642287E-1
3.240123995E1,1.172934175E0,2.002257586E0,2.986322343E-1
3.241790589E1,6.770942807E-1,1.672266603E0,2.179177701E-1
3.243457182E1,4.129964113E-1,1.062515497E0,1.992232800E-1
3.245123776E1,5.605780482E-1,7.458402514E-1,1.882485747E-1
3.246790370E1,9.920995831E-1,9.957112670E-1,6.433289498E-2
3.248456964E1,1.164651275E0,1.393724203E0,-5.420158058E-2
3.250123557E1,8.979940414E-1,1.470513463E0,-4.205331206E-2
3.251790151E1,5.275200009E-1,1.238525271E0,2.541358769E-2
3.253456745E1,3.695560694E-1,9.248237014E-1,1.461677440E-2
3.255123339E1,3.794772029E-1,7.645286918E-1,-1.880484447E-2
3.256789932E1,3.067694902E-1,7.037578225E-1,3.448528796E-2
3.258456526E1,1.446818560E-1,5.465756655E-1,1.465880275E-1
3.260123120E1,5.418910459E-2,3.255318999E-1,2.706497014E-1
3.261789714E1,7.539603114E-2,7.051688433E-2,3.419845998E-1
3.263456307E1,1.582777947E-1,-1.246855929E-1,3.259345889E-1
3.265122901E1,2.561615109E-1,-1.921594590E-1,2.645110488E-1
3.266789495E1,3.556467593E-1,-1.557861865E-1,1.971229315E-1
3.268456089E1,4.518889487E-1,-2.559452131E-2,1.205227673E-1
3.270122682E1,5.496430993E-1,2.503507435E-1,5.904882401E-2
3.271789276E1,6.537896991E-1,6.176969409E-1,2.953803539E-2
3.273455870E1,7.521594167E-1,9.122219682E-1,-1.204475760E-3
3.275122464E1,8.423505425E-1,1.069195271E0,-1.857912913E-2
3.276789057E1,9.253175855E-1,1.061571002E0,4.851792008E-3
3.278455651E1,9.147446156E-1,9.562718868E-1,4.868410900E-2
3.280122245E1,7.615194321E-1,8.170701861E-1,1.009467691E-1
3.281788839E1,5.506010652E-1,6.849145293E-1,1.639025509E-1
3.283455432E1,3.969340622E-1,5.744326115E-1,2.067756653E-1
3.285122026E1,3.028848767E-1,4.942188859E-1,2.036432922E-1
3.286788620E1,2.475512326E-1,4.108595252E-1,1.793105900E-1
3.288455214E1,2.256031632E-1,2.844729722E-1,1.440057904E-1
3.290121807E1,2.343492508E-1,1.812336892E-1,8.870825171E-2
3.291788401E1,2.657150030E-1,2.171125114E-1,1.762946881E-2
3.293454995E1,3.226875663E-1,2.925125957E-1,-5.538854748E-2
3.295121589E1,3.379280567E-1,2.617936730E-1,-1.479398310E-1
3.296788182E1,2.477707416E-1,1.093533784E-1,-2.477420270E-1
3.298454776E1,7.106768340E-2,-9.751987457E-2,-3.100597262E-1
3.300121370E1,-1.015713960E-1,-2.764921486E-1,-3.333508372E-1
3.301787964E1,-1.544544250E-1,-3.802275956E-1,-3.322124779E-1
3.303454557E1,-9.579498321E-2,-4.064717293E-1,-3.059751093E-1
3.305121151E1,-4.168519750E-2,-3.732928038E-1,-2.564158142E-1
3.306787745E1,1.139477082E-2,-2.625629604E-1,-1.982260942E-1
3.308454339E1,1.194096655E-1,-2.326518856E-2,-1.836476624E-1
3.310120932E1,2.399631441E-1,2.620424628E-1,-1.775520146E-1
3.311787526E1,2.976492941E-1,4.814257324E-1,-1.334896684E-1
3.313454120E1,3.261420131E-1,6.190702319E-1,-8.476251364E-2
3.315120714E1,3.227331340E-1,6.690841317E-1,-8.411455899E-2
3.316787307E1,1.615243703E-1,5.742638707E-1,-7.223963737E-2
3.318453901E1,-2.435566187E-1,3.363983333E-1,6.255282089E-3
3.320120495E1,-7.831475735E-1,4.532715306E-2,9.316155314E-2
3.321787089E1,-1.259576082E0,-1.058631390E-1,1.047058925E-1
3.323453682E1,-1.550094366E0,-2.400027364E-1,2.914535627E-2
3.325120276E1,-1.617070794E0,-3.997716308E-1,-1.299795136E-2
3.326786870E1,-1.485365987E0,-5.211591721E-1,7.951907814E-2
3.328453464E1,-1.243311048E0,-5.785062909E-1,3.061867356E-1
3.330120057E1,-1.102383733E0,-4.547752142E-1,4.900304377E-1
3.331786651E1,-1.221622109E0,-1.182847992E-1,4.328342080E-1
3.333453245E1,-1.512365699E0,2.010141760E-1,2.251843214E-1
3.335119839E1,-1.790042043E0,3.421234787E-1,5.377335101E-2
3.336786432E1,-1.989572644E0,3.808640838E-1,-2.566636354E-2
3.338453026E1,-2.124880552E0,3.829037845E-1,-4.604315758E-2
3.340119620E1,-2.179803610E0,2.530050874E-1,-2.014980465E-2
3.341786214E1,-2.203336716E0,-9.344165772E-2,6.525360048E-2
3.343452807E1,-2.190342426E0,-5.243666172E-1,2.043515742E-1
3.345119401E1,-2.096415758E0,-6.950712800E-1,3.363496661E-1
3.346785995E1,-1.937811017E0,-4.748605490E-1,4.381130338E-1
3.348452589E1,-1.755032659E0,-4.708573595E-2,4.893290699E-1
3.350119182E1,-1.534425139E0,4.154456854E-1,4.838239849E-1
