"Time (s)","Linear Acceleration x (m/s^2)","Linear Acceleration y (m/s^2)","Linear Acceleration z (m/s^2)"
1.304516660E-1,2.749322057E-1,-9.318351746E-2,-8.039430380E-1
1.471183320E-1,1.120698452E-1,2.691335678E-1,-6.105446815E-2
1.637849980E-1,2.633026838E-1,1.631565094E-1,3.727626801E-2
1.804516640E-1,1.922332644E-1,3.555679321E-2,1.853246689E-1
1.971183300E-1,1.991047859E-1,7.978057861E-2,7.609176636E-2
2.137849960E-1,2.616485357E-1,4.212856293E-1,-1.779452562E-1
2.304516620E-1,1.393569708E-1,3.258342743E-1,7.714724541E-2
2.471183280E-1,-2.278200984E-1,-4.379749298E-2,5.165392160E-1
2.637849940E-1,-2.278200984E-1,-4.379749298E-2,5.165392160E-1
2.804516600E-1,-2.564345002E-1,-1.981706619E-1,1.768860817E-1
2.971183260E-1,-8.319139481E-3,3.930854797E-2,4.997873306E-2
3.137849920E-1,6.246125698E-2,1.176834106E-2,-2.273213863E-2
3.304516580E-1,-7.097810507E-2,2.035140991E-1,-3.112292290E-2
3.471183240E-1,-1.867069602E-1,2.363367081E-1,-1.040207148E-1
3.637849900E-1,-2.790399194E-1,-3.254699707E-2,7.435834408E-2
3.804516560E-1,-3.049418330E-1,-2.467918396E-1,7.518815994E-2
3.971183220E-1,-3.115090728E-1,-2.262840271E-1,-9.042716026E-2
4.137849880E-1,-4.552714825E-1,-1.007556915E-1,-2.646397352E-1
4.304516540E-1,-4.137386680E-1,6.195545197E-2,-1.840521097E-1
4.471183200E-1,-3.770180941E-1,1.301250458E-1,2.561032772E-1
4.637849860E-1,-2.663557529E-1,-1.345787048E-1,4.029314518E-1
4.804516520E-1,-2.100306749E-1,-3.231401443E-1,2.336456776E-1
4.971183180E-1,-2.302772999E-1,-2.299690247E-1,-2.334638834E-1
5.137849840E-1,3.143715858E-2,9.525299072E-2,-1.838457584E-1
5.304516500E-1,1.493121386E-1,1.643705368E-1,2.295470238E-2
5.471183160E-1,1.746875644E-1,1.736202240E-1,3.736656904E-1
5.637849820E-1,1.092391610E-1,1.891279221E-1,4.185959101E-1
5.804516480E-1,-2.400147915E-2,3.152246475E-1,1.928116083E-1
5.971183140E-1,3.321272135E-2,2.653741837E-1,-1.458524466E-1
6.137849800E-1,6.234472990E-2,2.426242828E-2,-1.710017920E-1
6.304516460E-1,-1.817888021E-1,-1.893291473E-1,3.483080864E-1
6.471183120E-1,-7.216012478E-2,-5.239868164E-2,1.057783484E0
6.637849780E-1,-4.768937826E-2,-2.382278442E-2,-6.526410580E-1
6.804516440E-1,4.816639423E-2,-1.461238861E-1,-9.670470357E-1
6.971183100E-1,9.114170074E-2,-4.043483734E-1,-2.145425081E-1
7.137849760E-1,9.879755974E-2,-2.307682037E-1,-1.776695251E-1
7.304516420E-1,3.489638865E-1,2.173805237E-2,1.274565458E-1
7.471183080E-1,4.040209353E-1,-5.453300476E-2,4.733796120E-1
7.637849740E-1,4.255541265E-1,-1.848735809E-1,1.343131065E-3
7.804516400E-1,1.804139018E-1,-1.470174789E-1,-2.085846663E-1
7.971183060E-1,3.150665760E-2,-3.211021423E-2,8.997094631E-2
8.137849720E-1,3.600931168E-2,-5.741596222E-2,7.076787949E-2
8.304516380E-1,1.051433086E-1,5.749702454E-3,1.652741432E-2
8.471183040E-1,3.220546246E-2,3.211879730E-2,-9.000420570E-2
8.637849700E-1,-3.535752296E-1,4.344034195E-1,1.397283077E-1
8.804516360E-1,-8.836531639E-2,2.294139862E-1,2.725470066E-2
8.971183020E-1,-7.389450073E-2,-1.892175674E-1,-7.889366150E-2
9.137849680E-1,-3.179639578E-2,-1.797876358E-1,2.076065540E-2
9.304516340E-1,1.028887928E-1,6.416225433E-2,-1.167932749E-1
9.471183000E-1,3.325336874E-1,-1.709556580E-2,-1.879658699E-1
9.637849660E-1,4.782310128E-1,3.129673004E-2,-3.736804724E-1
9.804516320E-1,5.280469060E-1,-9.369373322E-2,-4.045380354E-1
9.971182980E-1,2.727419436E-1,7.986068726E-2,-2.351503372E-1
1.013784964E0,1.795864999E-1,2.278776169E-1,-2.103126049E-1
1.030451630E0,1.893557906E-1,1.978750229E-1,-5.103496909E-1
1.047118296E0,2.996283770E-2,3.782558441E-1,-3.578066826E-1
1.063784962E0,-1.172180772E-1,2.522258759E-1,2.066690922E-1
1.080451628E0,-3.029754460E-1,6.051731110E-2,4.048942327E-1
1.097118294E0,-3.334013522E-1,-3.527355194E-1,4.317992926E-1
1.113784960E0,-4.350549579E-1,-2.782649994E-1,1.083564758E-1
1.130451626E0,-3.082581758E-1,1.451683044E-2,2.804064751E-1
1.147118292E0,-1.100737453E-1,-2.888965607E-2,5.138326883E-1
1.163784958E0,-3.685471416E-2,-2.071990967E-1,4.839087725E-1
1.180451624E0,-1.522788405E-2,-1.616249084E-1,-1.439640522E-1
1.197118290E0,1.681795120E-1,7.886791229E-2,-5.807240605E-1
1.213784956E0,2.332593501E-1,3.943624496E-1,-2.741763592E-1
1.230451622E0,2.267760038E-1,4.107599258E-1,4.114151001E-2
1.247118288E0,3.558885753E-1,1.852159500E-1,9.543073177E-2
1.263784954E0,2.864684463E-1,-1.370573044E-1,-3.994083405E-2
1.280451620E0,1.773999631E-1,-2.898082733E-1,-2.493463159E-1
1.297118286E0,1.078374386E-1,-2.573928833E-1,-2.030602694E-1
1.313784952E0,1.078374386E-1,-2.573928833E-1,-2.030602694E-1
1.313784952E0,3.042018414E-2,-2.180910110E-1,-1.270695925E-1
1.347118284E0,3.723462522E-1,1.405868530E-1,-6.732318401E-1
1.363784950E0,4.313910604E-1,2.354612350E-1,-5.476309061E-1
1.380451616E0,5.184680223E-1,1.354179382E-1,-2.996623516E-2
1.397118282E0,3.513566256E-1,6.262493134E-2,3.615555763E-1
1.413784948E0,2.463438213E-1,-3.817462921E-2,1.869983673E-1
1.430451614E0,2.336326241E-1,-4.877185822E-2,9.859037399E-2
1.447118280E0,1.164979935E-1,-9.856796265E-2,-7.309257984E-2
1.463784946E0,1.180153936E-1,-5.087089539E-2,-1.091158390E-2
1.480451612E0,8.891473711E-2,1.300363541E-1,-2.916014194E-2
1.497118278E0,-4.005950689E-2,2.639284134E-1,-1.063175201E-1
1.513784944E0,1.980553567E-2,3.674421310E-1,7.861638069E-2
1.530451610E0,-1.543003470E-1,1.200542450E-1,2.579107881E-1
1.547118276E0,-3.182519078E-1,-1.433010101E-1,2.349968553E-1
1.563784942E0,-4.861966968E-1,-1.838493347E-1,1.312982440E-1
1.580451608E0,-5.106197596E-1,-1.612281799E-1,1.015372872E-1
1.597118274E0,-4.619312882E-1,-2.199096680E-1,-2.099663019E-2
1.613784940E0,-3.668119907E-1,-2.159137726E-1,1.794612408E-2
1.630451606E0,-1.585479826E-1,3.243446350E-3,1.445943117E-2
1.647118272E0,-1.435274482E-1,-2.919101715E-2,-1.080954075E-2
1.663784938E0,7.987886667E-3,-1.474361420E-1,-4.158889651E-1
1.680451604E0,1.585080922E-1,-1.552705765E-1,-7.346825004E-1
1.697118270E0,4.079171717E-1,-1.336536407E-1,-7.386379838E-1
1.713784936E0,4.229921103E-1,-2.844047546E-2,-4.390983582E-1
1.730451602E0,3.552613258E-1,1.663122177E-1,-4.388016462E-2
1.747118268E0,3.718969524E-1,3.403606415E-1,-1.733798981E-1
1.763784934E0,2.044755816E-1,1.397342682E-1,-5.681407452E-2
1.780451600E0,6.563216448E-2,-2.612209320E-2,-3.117018938E-2
1.797118266E0,-4.857233167E-2,-2.292633057E-2,-1.303222775E-1
1.813784932E0,-1.846524775E-1,2.662277222E-2,-1.213102341E-1
1.830451598E0,-3.538383842E-1,1.139802933E-1,8.395606279E-2
1.847118264E0,-3.922235668E-1,-8.297443390E-2,-4.151934385E-2
1.863784930E0,-4.032403231E-1,-2.000598907E-1,8.931535482E-2
1.880451596E0,-3.958458602E-1,-1.390457153E-1,3.784410954E-1
1.897118262E0,-2.458013296E-1,2.105875015E-1,3.682273030E-1
1.913784928E0,-7.568097115E-2,3.952207565E-1,3.079758883E-1
1.930451594E0,2.817624807E-2,1.938009262E-1,4.626315832E-1
1.947118260E0,1.557436585E-2,1.065750122E-1,2.591969967E-1
1.963784926E0,-1.715809107E-3,1.229238510E-1,1.416125894E-1
1.980451592E0,-2.348649502E-2,1.336812973E-1,1.139821410E-1
1.997118258E0,-6.151136756E-2,-1.693525314E-1,1.215655804E-1
2.013784924E0,-1.732067168E-1,-2.250556946E-1,2.202492952E-1
2.030451590E0,-2.068606615E-1,-1.068172455E-1,1.955977082E-1
2.047118256E0,-1.885593235E-1,-7.614898682E-2,1.229217649E-1
2.063784922E0,-1.146717668E-1,-7.955265045E-2,1.578743458E-1
2.080451588E0,3.722622991E-2,-1.889638901E-1,1.643343568E-1
2.097118254E0,1.073594987E-1,1.831912994E-2,1.249306798E-1
2.113784920E0,2.087719738E-1,1.059179306E-1,9.164816141E-2
2.130451586E0,2.302750647E-1,-4.289627075E-3,-6.576550007E-2
2.147118252E0,1.892252862E-1,4.575824738E-2,-2.152835727E-1
2.163784918E0,1.441195309E-1,1.320114136E-1,-3.742960095E-1
2.180451584E0,9.474918246E-2,9.402179718E-2,-4.804802537E-1
2.197118250E0,1.072686017E-1,-3.194141388E-2,-4.386307001E-1
2.213784916E0,-4.945975542E-2,-2.391910553E-2,-2.804852128E-1
2.230451582E0,-1.723161340E-1,1.720294952E-1,-1.117879748E-1
2.247118248E0,-2.521661520E-1,5.247497559E-2,6.096702814E-2
2.263784914E0,-2.642994523E-1,-1.451396942E-1,3.673654795E-2
2.280451580E0,-2.845698595E-1,-8.891677856E-2,-1.872817874E-1
2.297118246E0,-1.717380881E-1,-1.000308990E-2,-1.244314909E-1
2.313784912E0,-1.616442204E-1,3.507518768E-2,-3.883028030E-2
2.330451578E0,-5.770963430E-2,1.567840576E-2,-6.751042604E-2
2.347118244E0,-1.823437214E-2,7.614326477E-2,-1.165957451E-1
2.363784910E0,1.008391380E-3,1.447210312E-1,-2.720516920E-2
2.380451576E0,1.001876593E-2,9.643173218E-2,-6.386852264E-2
2.397118242E0,1.985609531E-2,-2.360820770E-2,-2.224703431E-1
2.413784908E0,-7.164669037E-2,-2.011013031E-2,-2.671173215E-1
2.430451574E0,-1.563661695E-1,-2.368736267E-2,-2.743978500E-1
2.447118240E0,-2.360404134E-1,-1.537704468E-1,-1.346243024E-1
2.463784906E0,-2.214918733E-1,-1.586952209E-1,-8.923655748E-2
2.480451572E0,-2.530505061E-1,-1.038942337E-1,-1.384624243E-1
2.497118238E0,-2.172850370E-1,-5.654621124E-2,-2.128922939E-2
2.513784904E0,-2.106130123E-1,-5.940723419E-2,1.717686653E-2
2.530451570E0,-2.252168655E-1,4.082965851E-2,4.174035788E-2
2.547118236E0,-1.338981986E-1,1.137790680E-1,1.502646804E-1
2.563784902E0,-1.103475094E-1,1.625528336E-1,1.544750333E-1
2.580451568E0,-5.614507198E-2,3.545475006E-2,6.660050154E-2
2.597118234E0,-3.075361252E-3,-2.586269379E-2,2.363663912E-2
2.613784900E0,9.027659893E-3,4.582023621E-2,3.790050745E-2
2.630451566E0,2.339544892E-2,7.361412048E-3,8.501917124E-2
2.647118232E0,2.216574550E-2,-1.154346466E-1,4.805886745E-2
2.663784898E0,2.515932918E-2,-5.478858948E-2,5.949205160E-2
2.680451564E0,2.837240696E-3,3.583431244E-2,1.846967340E-1
2.697118230E0,2.837240696E-3,3.583431244E-2,1.846967340E-1
2.713784896E0,2.612319589E-2,-2.191925049E-2,1.101830602E-1
2.730451562E0,1.071986556E-2,-1.663017273E-2,-3.099370003E-2
2.747118228E0,2.389946580E-2,-1.659011841E-2,-1.614534855E-2
2.763784894E0,-9.846091270E-4,-1.102256775E-2,1.298246980E-1
2.780451560E0,3.123095632E-2,7.624149323E-2,4.635411501E-2
2.797118226E0,3.241160512E-2,-1.549911499E-2,7.328885794E-2
2.813784892E0,2.967575192E-2,-4.310989380E-2,4.381597042E-3
2.830451558E0,2.940526605E-2,1.466751099E-2,4.325056076E-2
2.847118224E0,1.902815700E-2,-2.554893494E-3,1.096134186E-1
2.863784890E0,1.540273428E-2,-3.495407104E-2,1.038044691E-2
2.880451556E0,-9.455442429E-3,1.741695404E-2,1.217865944E-2
2.897118222E0,-9.460207820E-2,-2.546405792E-2,1.489963531E-1
2.913784888E0,-1.524119377E-1,4.003143311E-2,1.966204047E-1
2.930451554E0,-1.996481717E-1,4.693126678E-2,2.532989979E-1
2.947118220E0,-1.614350677E-1,-4.241561890E-2,4.170075059E-1
2.963784886E0,-2.614301443E-1,-5.650711060E-2,6.375150681E-1
2.980451552E0,-1.192808747E-1,-7.159233093E-3,3.224992156E-1
2.997118218E0,2.313497663E-2,7.096385956E-2,1.217634082E-1
3.013784884E0,4.833152890E-2,9.177875519E-2,1.723996997E-1
3.030451550E0,-3.439536691E-2,6.784915924E-2,2.836842537E-1
3.047118216E0,-4.413455725E-3,6.601333618E-3,2.757712603E-1
3.063784882E0,-1.448251605E-1,-8.991622925E-2,1.865320802E-1
3.080451548E0,-8.468359709E-2,-1.871604919E-1,1.111004353E-1
3.097118214E0,-1.288779974E-1,-3.059616089E-1,-4.286897182E-2
3.113784880E0,-7.844471931E-2,-3.032178879E-1,-5.488228798E-2
3.130451546E0,-8.252623677E-2,-2.559223175E-1,-1.532559395E-1
3.147118212E0,-7.938963175E-2,-9.793758392E-2,-7.720416784E-2
3.163784878E0,2.881526947E-2,2.883625031E-2,-7.863754034E-2
3.180451544E0,2.881526947E-2,2.883625031E-2,-7.863754034E-2
3.197118210E0,1.169919372E-1,6.007575989E-2,1.903301477E-2
3.213784876E0,1.811572909E-1,4.027366638E-2,-3.737521172E-2
3.230451542E0,2.129234374E-1,-1.794338226E-2,1.342803240E-2
3.247118208E0,2.606608272E-1,-4.118156433E-2,-1.240705252E-1
3.263784874E0,3.340075314E-1,4.940414429E-2,-8.942198753E-2
3.280451540E0,2.496069372E-1,6.554126740E-2,1.311828494E-1
3.297118206E0,1.746812463E-1,5.649471283E-2,6.937569380E-2
3.313784872E0,9.323534369E-2,8.164501190E-2,5.821293592E-2
3.330451538E0,7.451838255E-2,2.919864655E-2,1.019576788E-1
3.347118204E0,5.950534344E-2,-5.253314972E-2,1.032584906E-1
3.363784870E0,8.224752545E-2,-4.305267334E-2,5.578649044E-2
3.380451536E0,1.466679573E-1,2.089691162E-2,-1.014259458E-1
3.397118202E0,1.972709298E-1,5.080604553E-2,-1.234985292E-1
3.413784868E0,3.005730510E-1,4.525184631E-3,9.711211920E-2
3.430451534E0,3.236137033E-1,-7.115459442E-2,2.373081446E-2
3.447118200E0,4.380599260E-1,-6.130504608E-2,-2.854105830E-1
3.463784866E0,5.263249278E-1,4.618835449E-2,-2.039604634E-1
3.480451532E0,5.409099460E-1,2.086791992E-1,-1.338089705E-1
3.497118198E0,6.023887992E-1,2.690172195E-1,-1.768141687E-1
3.513784864E0,6.029195786E-1,1.100673676E-1,-4.742484689E-1
3.530451530E0,6.267919540E-1,3.968524933E-2,-5.448445082E-1
3.547118196E0,4.851598740E-1,6.791019440E-2,-4.523375630E-1
3.563784862E0,4.125896990E-1,1.447906494E-1,-4.525786042E-1
3.580451528E0,9.111174941E-2,8.557987213E-2,-2.104247808E-1
3.597118194E0,-1.206111982E-1,-6.502342224E-2,-6.190216541E-2
3.613784860E0,-2.710893154E-1,-2.042942047E-1,-1.385548413E-1
3.630451526E0,-3.314654827E-1,-1.630878448E-1,-2.156636268E-1
3.647118192E0,-3.138671219E-1,-7.313537598E-2,-3.312340379E-2
3.663784858E0,-1.084613502E-1,-7.772922516E-2,2.809295058E-1
3.680451524E0,8.554695547E-2,-1.792812347E-2,5.023354292E-1
3.697118190E0,3.484809101E-1,-1.846218109E-2,6.141360998E-1
3.713784856E0,6.086556315E-1,-5.319404602E-2,4.388585687E-1
3.730451522E0,8.758457303E-1,-1.168441772E-2,1.071138829E-1
3.747118188E0,8.642489910E-1,-1.070785522E-1,2.481521219E-1
3.763784854E0,8.478772044E-1,-8.079624176E-2,2.864242792E-1
3.780451520E0,1.000704765E0,-1.089172363E-1,2.395909280E-1
3.797118186E0,8.070604801E-1,-2.144384384E-1,3.910472989E-2
3.813784852E0,6.806098223E-1,-2.133340836E-1,-5.226896703E-2
3.830451518E0,5.890790820E-1,-1.572313309E-1,1.741242409E-1
3.847118184E0,4.529643953E-1,-1.042814255E-1,4.816646576E-1
3.863784850E0,4.326283932E-1,-1.813411713E-1,6.118478179E-1
3.880451516E0,4.286997914E-1,-1.295471191E-1,4.211927056E-1
3.897118182E0,4.606984556E-1,-1.181459427E-1,3.681359887E-1
3.913784848E0,3.311485946E-1,-2.694501877E-1,8.092217445E-1
3.930451514E0,3.066835403E-1,-3.145999908E-1,1.096502900E0
3.947118180E0,3.320713341E-1,-1.854887009E-1,9.397583008E-1
3.963784846E0,4.366501570E-1,-8.159255981E-2,7.784141302E-1
3.980451512E0,5.524839163E-1,-5.653095245E-2,7.942735553E-1
3.997118178E0,7.793653011E-1,-4.945945740E-2,7.369399667E-1
4.013784844E0,9.064060450E-1,1.587867737E-3,6.779435873E-1
4.030451510E0,1.188374281E0,9.952831268E-2,4.728020728E-1
4.047118176E0,1.317617655E0,3.459434509E-1,-1.981892586E-1
4.063784842E0,1.174031258E0,1.060906410E0,-7.012369037E-1
4.080451508E0,1.138588786E0,1.218577385E0,-6.093476415E-1
4.097118174E0,7.876811028E-1,1.257730484E0,-4.567140043E-1
4.113784840E0,5.740022659E-1,1.299692154E0,-1.443380862E-1
4.130451506E0,6.722763181E-1,1.214758873E0,8.800597787E-1
4.147118172E0,4.270301163E-1,1.044697762E0,1.094621658E0
4.163784838E0,-1.531876802E0,2.107389450E0,3.875020146E-1
4.180451504E0,-1.431003571E0,2.858123779E0,5.341941714E-1
4.197118170E0,-1.350731254E0,3.446443558E0,1.040412426E0
4.213784836E0,-1.035369873E0,3.448238373E0,2.046082020E-1
4.230451502E0,-9.298851490E-1,2.576936722E0,-8.064001799E-1
4.247118168E0,-1.066002965E0,8.386325836E-1,-5.871219039E-1
4.263784834E0,-1.478818059E0,-3.433370590E-1,-2.480313778E-1
4.280451500E0,-1.661639333E0,-1.464508057E0,-7.724891901E-1
4.297118166E0,-1.590135813E0,-1.671348572E0,-1.259553432E-1
4.313784832E0,-7.986671925E-1,-1.625994205E0,5.433001518E-1
4.330451498E0,-3.910908103E-1,-1.311542511E0,4.705784321E-1
4.347118164E0,-5.895093679E-1,-4.730606079E-1,4.251027107E-1
4.363784830E0,-6.588465571E-1,-1.826944351E-1,-6.654884815E-1
4.380451496E0,-8.221498728E-1,-7.569217682E-2,-2.774859905E0
4.397118162E0,-1.112228274E0,-1.526947021E-1,-2.632522583E0
4.413784828E0,-1.644160509E0,-4.303188324E-1,-1.084368467E0
4.430451494E0,-2.218408585E0,-7.773447037E-1,-7.210268974E-1
4.447118160E0,-2.561028719E0,-1.385806084E0,-8.548386097E-1
4.463784826E0,-2.624476910E0,-1.520895958E0,-8.143155575E-1
4.480451492E0,-2.340122223E0,-1.485159874E0,-1.084343195E0
4.497118158E0,-2.142536163E0,-1.487032413E0,-9.192471504E-1
4.513784824E0,-1.721162319E0,-1.666476727E0,-1.339423180E0
4.530451490E0,-1.520526648E0,-1.668030262E0,-1.203814030E0
4.547118156E0,-1.026304841E0,-1.394686222E0,-7.029688358E-1
4.563784822E0,-7.022489905E-1,-1.332016945E0,-3.522391319E-1
4.580451488E0,-5.610747337E-1,-1.138237476E0,-2.505946159E-1
4.597118154E0,-5.198062658E-1,-1.020899773E0,-4.298830032E-2
4.613784820E0,-4.482979178E-1,-6.997051239E-1,5.011959076E-1
4.630451486E0,-2.000122070E-1,-4.375190735E-1,9.070081711E-1
4.647118152E0,3.799259663E-2,-4.740858078E-1,1.325377464E0
4.663784818E0,2.209010720E-1,-7.129411697E-1,5.486702919E-1
4.680451484E0,9.045118093E-2,-5.049190521E-1,1.083548069E0
4.697118150E0,9.045118093E-2,-5.049190521E-1,1.083548069E0
4.713784816E0,5.281983614E-1,-2.050065994E-1,1.381699562E0
4.730451482E0,5.166766644E-1,-2.870321274E-1,6.351509094E-1
4.747118148E0,1.616308987E-1,1.128005981E-2,4.683041573E-1
4.763784814E0,2.238313854E-1,4.458150864E-1,7.488107681E-1
4.780451480E0,3.917502165E-1,3.548393250E-1,1.059911251E0
4.797118146E0,-1.838566959E-1,-2.403831482E-2,1.005630493E0
4.813784812E0,-5.164489746E-1,-3.298540115E-1,8.864853382E-1
4.830451478E0,-1.095887184E0,6.349306107E-1,-4.662728310E-2
4.847118144E0,-1.494229555E0,1.630612373E0,-2.691020966E-1
4.863784810E0,-2.119233370E0,2.555391312E0,2.018983364E-1
4.880451476E0,-2.388587952E0,2.846280098E0,1.157684326E-1
4.897118142E0,-2.658700228E0,3.436110497E0,-3.823168278E-1
4.913784808E0,-2.279383421E0,3.420273781E0,-1.323735714E-1
4.930451474E0,-9.203964472E-1,2.269338608E0,1.181891203E0
4.947118140E0,-9.380759001E-1,5.905132294E-1,9.340262413E-2
4.963784806E0,-7.146323919E-1,-1.179950714E0,-3.764689207E0
4.980451472E0,-9.064722657E-1,-2.174556732E0,-5.098383427E0
4.997118138E0,-1.268702745E0,-2.566361427E0,-3.774684668E0
5.013784804E0,-9.594296217E-1,-2.306825161E0,-2.068689346E0
5.030451470E0,-4.058391154E-1,-1.141922951E0,-3.727898598E-1
5.047118136E0,-1.613550186E-1,-2.903718948E-1,-6.222200394E-1
5.063784802E0,-8.489727974E-2,3.438873291E-1,-1.569168568E0
5.080451468E0,-2.153455913E-1,3.932504654E-1,-2.194229603E0
5.097118134E0,-2.628822625E-1,4.344930649E-1,-2.191779852E0
5.113784800E0,-5.331495404E-1,5.773210526E-1,-1.283955097E0
5.130451466E0,-6.044028401E-1,5.546684265E-1,-4.449119568E-1
5.147118132E0,-6.784590483E-1,4.227247238E-1,-6.449446678E-1
5.163784798E0,-7.298264503E-1,3.331251144E-1,-8.960556984E-1
5.180451464E0,-7.062704563E-1,-2.837028503E-1,-4.364945889E-1
5.197118130E0,-6.994339228E-1,-7.211961746E-1,-6.049326658E-1
5.213784796E0,-6.313409805E-1,-9.701213837E-1,-7.692730427E-1
5.230451462E0,-3.985235989E-1,-7.929735184E-1,-6.248552799E-1
5.247118128E0,6.017947197E-2,-4.209203720E-1,-1.345191002E-1
5.263784794E0,1.498657465E-1,9.834766388E-2,5.292854309E-1
5.280451460E0,4.211752415E-1,-4.110527039E-2,1.003143311E0
5.297118126E0,4.269510508E-1,-3.420667648E-1,3.419198990E-1
5.313784792E0,4.895865917E-1,-5.752058029E-1,-3.784465790E-1
5.330451458E0,4.965915680E-1,-3.749275208E-1,-4.579348564E-1
5.347118124E0,-1.030237317E0,5.629272461E-1,-1.595129728E0
5.363784790E0,5.786440521E-2,6.492710114E-1,5.339683294E-1
5.380451456E0,1.279820442E0,3.771028519E-1,2.914637566E0
5.397118122E0,1.469561934E0,-3.840980530E-1,2.207187176E0
5.413784788E0,1.003979564E0,-1.201350212E0,1.359089613E-1
5.430451454E0,5.942004919E-1,-1.437309265E0,-6.722255349E-1
5.447118120E0,3.522288799E-1,-7.824172974E-1,-4.818603992E-1
5.463784786E0,4.205210879E-2,-1.833229065E-1,3.204518557E-1
5.480451452E0,9.928329289E-2,1.773309708E-1,1.024999261E0
5.497118118E0,4.396916032E-1,3.910322189E-1,7.759100199E-1
5.513784784E0,4.325225949E-1,8.400707245E-1,5.251626968E-1
5.530451450E0,5.235443711E-1,1.055132866E0,7.080290318E-1
5.547118116E0,1.269929528E0,8.015546799E-1,1.253101587E0
5.563784782E0,1.638120651E0,6.325874329E-1,1.431516290E0
5.580451448E0,1.488464117E0,6.210784912E-1,1.652596235E0
5.597118114E0,1.510453224E0,7.896013260E-1,1.689116836E0
5.613784780E0,1.802102327E0,9.585752487E-1,1.062770367E0
5.630451446E0,1.781336784E0,1.817698479E0,2.925163507E-2
5.647118112E0,9.787408113E-1,3.238288879E0,-1.690543294E-1
5.663784778E0,3.122066259E-1,4.277376175E0,3.574466705E-2
5.680451444E0,4.686559439E-1,3.910773277E0,6.647552252E-1
5.697118110E0,6.276112795E-1,2.377105713E0,6.337444782E-1
5.713784776E0,6.826502085E-1,1.105374336E0,-5.811691284E-1
5.730451442E0,-5.033785105E-1,6.295938492E-1,-1.180926323E0
5.747118108E0,-1.505424619E0,5.858955383E-1,3.625967503E-1
5.763784774E0,-3.079537392E0,8.805589676E-1,1.237158775E0
5.780451440E0,-3.683468103E0,1.287368774E0,2.388687134E-1
5.797118106E0,-2.428663731E0,1.435230255E0,-1.397413969E0
5.813784772E0,-9.646940231E-1,1.177698135E0,-1.459377050E0
5.830451438E0,-5.887404084E-1,1.562591553E0,-1.895531178E0
5.847118104E0,-8.648844957E-1,2.243067741E0,-2.954721928E0
5.863784770E0,-5.401892662E-1,1.874455452E0,-4.272613049E0
5.880451436E0,-8.472567201E-1,1.447684288E0,-4.316102982E0
5.897118102E0,-1.042029142E0,6.938018799E-1,-3.356330872E0
5.913784768E0,-1.757997274E-1,-3.738784790E-2,-1.315588951E-1
5.930451434E0,6.573940516E-1,-9.196906090E-1,5.310666561E0
5.947118100E0,-1.584252477E0,-1.024897575E0,4.113662720E0
5.963784766E0,-3.457886696E0,-4.902982712E-1,-1.991333485E0
5.980451432E0,-2.917376995E0,-4.481444359E-1,-4.000415325E0
5.997118098E0,-1.662065744E0,9.176397324E-2,-4.014712334E0
6.013784764E0,-1.216773987E0,6.950292587E-1,-2.523726225E0
6.030451430E0,-9.526771307E-1,1.356967926E0,-1.554832458E-1
6.047118096E0,-8.605822921E-1,1.151187897E0,3.177504539E-1
6.063784762E0,-1.169705153E0,2.372574806E-1,7.442855835E-2
6.080451428E0,-1.141373396E0,-2.088894844E-1,-4.039521217E-1
6.097118094E0,-7.655823231E-1,-4.286837578E-1,-1.691595554E0
6.113784760E0,-7.116736174E-1,-5.240616798E-1,-2.130065441E0
6.130451426E0,-6.918441057E-1,-4.124836922E-1,-1.998006344E0
6.147118092E0,-3.947941065E-1,-1.639056206E-1,-1.722831249E0
6.163784758E0,-2.667410374E-1,-1.131768227E-1,-1.134135246E0
6.180451424E0,-3.120573759E-1,-1.317815781E-1,-1.028313637E0
6.197118090E0,-1.173877120E0,-3.170666695E-1,-9.699144363E-1
6.213784756E0,-2.135588169E0,-6.910028458E-1,-4.284691811E-1
6.230451422E0,-2.199915648E0,-7.130117416E-1,-6.839261055E-1
6.247118088E0,-9.930676222E-1,-6.665983200E-1,-7.154731750E-1
6.263784754E0,-3.555330038E-1,-5.067496300E-1,-6.371536255E-1
6.280451420E0,-7.378673553E-2,-4.034233093E-1,-1.085192204E0
6.297118086E0,4.113082886E-1,-7.232575417E-1,-8.528308868E-1
6.313784752E0,5.264270306E-1,-1.288379669E0,-4.620528221E-1
6.330451418E0,2.800853252E-1,-1.349092007E0,-3.632402420E-1
6.347118084E0,-7.644033432E-1,-1.129677296E0,-6.956410408E-1
6.363784750E0,-1.450667024E0,-9.677729607E-1,-4.309606552E-1
6.380451416E0,-1.524876118E0,-7.094621658E-1,-1.253013611E-1
6.397118082E0,-1.127691269E0,3.540077209E-1,7.022104263E-1
6.413784748E0,5.879359245E-1,2.664024830E0,3.288474083E0
6.430451414E0,1.655859947E0,2.967128754E0,3.500928879E0
6.447118080E0,2.219543219E0,1.893944740E0,1.258513451E0
6.463784746E0,9.335398674E-1,1.527998924E0,3.891010284E-1
6.480451412E0,-1.170951366E0,7.539873123E-1,1.249089241E-1
6.497118078E0,-8.514932394E-1,1.191153526E-1,-6.267604828E-1
6.513784744E0,-7.177038193E-1,-1.472549438E-1,-9.686098099E-1
6.530451410E0,-8.532056808E-1,2.817144394E-1,-4.014978409E-1
6.547118076E0,-1.159611344E0,1.877248287E0,-1.047471046E0
6.563784742E0,-1.350786805E0,2.675217628E0,-1.308682919E0
6.580451408E0,-1.160595894E0,2.671371460E0,-5.935320854E-1
6.597118074E0,-9.894334078E-1,2.217787743E0,-5.810189247E-1
6.613784740E0,-4.234882593E-1,1.245590210E0,-1.359488726E0
6.630451406E0,1.882295609E-1,1.154382706E0,-2.101385593E0
6.647118072E0,2.641004324E-1,1.385662079E0,-2.358440876E0
6.663784738E0,-5.497456789E-1,1.307889938E0,-1.296095133E0
6.680451404E0,-1.162788153E0,1.160945892E0,-7.666666508E-1
6.697118070E0,-1.402396321E0,7.854185104E-1,-5.549957752E-1
6.713784736E0,-9.701372385E-1,6.091175079E-1,-9.127373695E-1
6.730451402E0,2.125663757E-1,6.935348511E-1,-1.733887672E0
6.747118068E0,6.421370506E-1,8.871507645E-1,-2.043707848E0
6.763784734E0,6.403937340E-1,7.696981430E-1,-1.328392506E0
6.780451400E0,5.522177219E-1,4.428977966E-1,-6.499929428E-1
6.797118066E0,5.546903610E-1,-1.487741470E-1,-7.427506447E-1
6.813784732E0,5.723816752E-1,-4.055528641E-1,-1.334469080E0
6.830451398E0,3.114808798E-1,-4.548540115E-1,-1.364717007E0
6.847118064E0,1.766436696E-1,-7.292909622E-1,-7.015860081E-1
6.863784730E0,3.715774417E-1,-1.309930801E0,-1.745827198E-1
6.880451396E0,5.428889394E-1,-1.634415627E0,-2.303645611E-1
6.897118062E0,3.249014020E-1,-1.753253937E0,-3.453180790E-1
6.913784728E0,2.035304308E-1,-1.784193039E0,-5.031507015E-1
6.930451394E0,4.434776306E-2,-1.974770546E0,-4.928162098E-1
6.947118060E0,-1.314550638E-2,-1.944560051E0,-6.235547066E-1
6.963784726E0,-3.281452656E-1,-1.786853313E0,-6.698272228E-1
6.980451392E0,-6.120159626E-1,-1.695512295E0,-3.273336887E-1
6.997118058E0,-6.626189947E-1,-1.314157486E0,-3.110277653E-1
7.013784724E0,-5.468112826E-1,-1.000088692E0,-4.551410675E-2
7.030451390E0,1.017864347E-1,-6.486454010E-1,2.234933376E-1
7.047118056E0,4.127573967E-1,-4.645938873E-1,-8.881855011E-2
7.063784722E0,5.417446494E-1,-3.814029694E-2,-6.290683746E-1
7.080451388E0,4.427983463E-1,3.045148849E-1,-5.165106058E-1
7.097118054E0,1.352590621E-1,7.845497131E-1,6.596333981E-1
7.113784720E0,1.848767698E-1,1.011054039E0,1.370831013E0
7.130451386E0,6.775728464E-1,1.261120796E0,1.102489471E0
7.147118052E0,8.553780317E-1,1.595155716E0,9.507288933E-1
7.163784718E0,1.004161596E0,1.915246964E0,1.379141927E0
7.180451384E0,1.252207994E0,2.114077568E0,1.559684753E0
7.197118050E0,1.373768330E0,2.346390724E0,1.588885307E0
7.213784716E0,1.284833431E0,2.792757034E0,1.075121403E0
7.230451382E0,9.426251650E-1,3.315080643E0,1.893264055E-1
7.247118048E0,9.426251650E-1,3.315080643E0,1.893264055E-1
7.263784714E0,1.803072095E-1,4.750047684E0,6.284099817E-1
7.280451380E0,-3.291352987E-1,5.250510216E0,9.393308163E-1
7.297118046E0,-9.008383751E-1,5.329404831E0,3.960618973E-1
7.313784712E0,-1.468122602E0,3.814446449E0,4.164257050E-1
7.330451378E0,-1.290707946E0,2.113791466E0,6.849007607E-1
7.347118044E0,-1.434643149E0,5.042562485E-1,1.417220116E0
7.363784710E0,-1.766297936E0,-4.622278214E-1,2.531716585E0
7.380451376E0,-1.833682299E0,-1.572511673E0,2.709156513E0
7.397118042E0,-1.161748052E0,-1.647446632E0,7.680025101E-1
7.413784708E0,-2.280498147E-1,-1.036681175E0,-2.068161964E-2
7.430451374E0,1.112119555E-1,-7.281913757E-1,5.173218250E-1
7.447118040E0,4.917783141E-1,-3.181791306E-1,3.367087841E-1
7.463784706E0,6.400704384E-3,3.271675110E-2,-4.533615112E-1
7.480451372E0,-6.345095634E-1,1.434297562E-1,-2.187209845E0
7.497118038E0,-1.074837208E0,8.512020111E-2,-2.810467720E0
7.513784704E0,-1.110226989E0,-7.349205017E-2,-2.301769018E0
7.530451370E0,-4.838428497E-1,-2.045106888E-1,-1.936226845E0
7.547118036E0,4.268006682E-1,-4.567623138E-1,-1.466886520E0
7.563784702E0,8.510626554E-1,-7.667217255E-1,-1.262741089E0
7.580451368E0,2.055385709E-1,-8.992128372E-1,-5.795578957E-1
7.597118034E0,-3.325130939E-1,-9.879212379E-1,-1.036718845E0
7.613784700E0,-8.814001083E-1,-1.222559452E0,-2.054274082E0
7.630451366E0,-1.551037550E0,-1.541307926E0,-2.105293274E0
7.647118032E0,-2.342404366E0,-2.043253422E0,-1.815159798E0
7.663784698E0,-2.305613041E0,-2.395402431E0,-1.703649998E0
7.680451364E0,-1.874967337E0,-2.336723328E0,-1.697118282E0
7.697118030E0,-9.854550362E-1,-2.167124748E0,-1.376564026E0
7.713784696E0,-4.338479042E-1,-1.804259300E0,-4.857668877E-1
7.730451362E0,-4.338479042E-1,-1.804259300E0,-4.857668877E-1
7.747118028E0,-8.259592652E-1,-1.045590878E0,-6.066126823E-1
7.763784694E0,-9.412547350E-1,-1.225588799E0,-2.433043003E0
7.780451360E0,-8.512924910E-1,-1.121788979E0,-2.500315189E0
7.797118026E0,-3.997831345E-1,-6.952071190E-1,-2.063934803E0
7.813784692E0,-2.370487452E-1,-4.078617096E-1,-1.470369339E0
7.830451358E0,-2.674970627E-1,-5.524864197E-1,-6.926770210E-1
7.847118024E0,-1.316831112E-1,-9.482107162E-1,-4.314947128E-1
7.863784690E0,-2.531567812E-1,-1.378925323E0,4.463195801E-2
7.880451356E0,-4.108911753E-1,-1.561436653E0,4.088668823E-1
7.897118022E0,-2.825244665E-1,-1.520954132E0,8.425798416E-1
7.913784688E0,1.890670061E-1,-1.165054798E0,1.318326473E0
7.930451354E0,6.693434715E-1,-5.395889282E-3,1.999056816E0
7.947118020E0,-2.527632713E-1,1.276854992E0,1.646418095E0
7.963784686E0,-1.735724449E0,2.837858200E0,3.124461174E-1
7.980451352E0,-1.595031857E0,2.862468243E0,5.294256210E-1
7.997118018E0,-9.295297861E-1,2.665354252E0,2.341845512E0
8.013784684E0,-7.635958195E-1,2.274512768E0,1.205148220E0
8.030451350E0,-3.342353106E-1,2.134472847E0,-5.259251595E-1
8.047118016E0,-3.324754238E-1,2.400566101E0,-1.204442978E0
8.063784682E0,-6.644921899E-1,3.015011787E0,4.198017120E-1
8.080451348E0,-6.576694250E-1,2.990790367E0,-1.676611900E-1
8.097118014E0,9.651899338E-2,1.823064804E0,-8.611574173E-1
8.113784680E0,3.460291624E-1,6.959228516E-1,-1.171553135E0
8.130451346E0,4.301496744E-1,-9.136857986E-1,-1.394162655E0
8.147118012E0,7.620599270E-1,-1.545400620E0,-1.712449789E0
8.163784678E0,6.989845037E-1,-9.423532486E-1,-2.086114407E0
8.180451344E0,-1.334820986E-1,2.745208740E-1,-1.437479734E0
8.197118010E0,-7.002472878E-1,7.126836777E-1,-5.313205719E-1
8.213784676E0,-9.915922284E-1,4.072751999E-1,2.862215042E-2
8.230451342E0,-5.995745659E-1,-2.246131897E-1,-4.847187996E-1
8.247118008E0,1.355767250E-1,-8.613319397E-1,-1.148493052E0
8.263784674E0,2.424135804E-1,-1.049126148E0,-1.137349367E0
8.280451340E0,6.133276224E-2,-9.277486801E-1,-8.632588387E-1
8.297118006E0,6.302571297E-2,-8.385763168E-1,-6.928062439E-1
8.313784672E0,2.049801350E-1,-8.908605576E-1,-7.186322212E-1
8.330451338E0,2.721688151E-1,-1.169230461E0,-3.745748997E-1
8.347118004E0,3.148278594E-1,-1.278519630E0,1.350960732E-1
8.363784670E0,5.223269463E-1,-1.271538734E0,1.438450813E-1
8.380451336E0,8.246248960E-1,-1.299350739E0,-3.314921856E-1
8.397118002E0,8.329271078E-1,-1.345725060E0,-4.708943367E-1
8.413784668E0,6.020991206E-1,-1.303661346E0,-3.718776703E-1
8.430451334E0,5.919191837E-1,-1.235530853E0,-3.219182491E-1
8.447118000E0,6.822407246E-1,-9.945106506E-1,-2.888517380E-1
8.463784666E0,5.256309509E-1,-7.627706528E-1,-4.402651787E-1
8.480451332E0,3.234333992E-1,-3.560628891E-1,-4.010698795E-1
8.497117998E0,2.266709208E-1,-1.626377106E-1,-2.116775513E-2
8.513784664E0,1.881833673E-1,-1.068019867E-1,3.571307659E-1
8.530451330E0,3.655169606E-1,-4.785346985E-2,3.755140305E-1
8.547117996E0,5.678910017E-1,3.144693375E-1,1.480553150E-1
8.563784662E0,5.785416365E-1,5.698776245E-1,2.794196606E-1
8.580451328E0,3.043596447E-1,3.838081360E-1,5.300757885E-1
8.597117994E0,1.956259608E-1,3.055410385E-1,6.734137535E-1
8.613784660E0,7.764736414E-1,6.449832916E-1,9.521713257E-1
8.630451326E0,1.045312405E0,8.572368622E-1,8.327929974E-1
8.647117992E0,9.360270500E-1,8.863353729E-1,5.227261782E-1
8.663784658E0,6.004536748E-1,9.850893021E-1,1.118676186E0
8.680451324E0,4.930880070E-1,9.551572800E-1,1.529512644E0
8.697117990E0,4.930880070E-1,9.551572800E-1,1.529512644E0
8.713784656E0,1.082368135E0,1.584567070E0,9.640859365E-1
8.730451322E0,1.038604379E0,2.515616417E0,5.828497410E-1
8.747117988E0,7.275892496E-1,3.328394890E0,2.901546955E-1
8.763784654E0,3.268280625E-1,4.027584076E0,7.259041071E-1
8.780451320E0,-2.647057176E-1,4.547388077E0,1.107168078E0
8.797117986E0,-1.022509217E0,4.918850899E0,1.264798880E0
8.813784652E0,-1.047185659E0,4.227405548E0,7.972450256E-1
8.830451318E0,-2.043898106E-1,1.794418335E0,1.462061405E-1
8.847117984E0,-1.500823349E-1,5.008220673E-2,-1.600549221E-1
8.863784650E0,-6.365121603E-1,-1.121780396E0,-7.772022486E-1
8.880451316E0,-1.746681809E0,-1.343728065E0,-4.564521313E-1
8.897117982E0,-2.656849146E0,-1.148679733E0,7.476449013E-1
8.913784648E0,-1.236925006E0,-1.071046829E0,3.887605667E-1
8.930451314E0,-9.326553345E-2,-8.872423172E-1,-1.403203726E0
8.947117980E0,-3.301132321E-1,-6.020498276E-1,-1.338960409E0
8.963784646E0,-4.632453918E-1,-1.131191254E-1,-6.149880886E-1
8.980451312E0,-1.446028650E-1,2.378921509E-1,-4.619636536E-1
8.997117978E0,8.252850175E-2,8.509845734E-1,6.100831032E-1
9.013784644E0,2.082942724E-1,1.108787537E0,1.942550659E0
9.030451310E0,1.147170961E-1,8.993930817E-1,2.418975830E0
9.047117976E0,-4.905155301E-2,3.427124023E-1,1.206670284E0
9.063784642E0,-3.481359482E-1,-5.119380951E-1,-1.530988693E0
9.080451308E0,-6.338415146E-1,-7.679462433E-1,-3.163085461E0
9.097117974E0,-7.241839767E-1,-7.379341125E-1,-3.899811029E0
9.113784640E0,-6.997617483E-1,-5.771608353E-1,-3.237432241E0
9.130451306E0,-3.497698307E-1,-5.201601982E-1,-7.087001801E-1
9.147117972E0,-9.442687035E-3,-8.039493561E-1,1.340768814E0
9.163784638E0,2.818367481E-1,-1.293088436E0,1.610838890E0
9.180451304E0,-5.435420275E-1,-1.483374596E0,-1.275707245E0
9.197117970E0,-1.393689871E0,-1.664756775E0,-2.681615114E0
9.213784636E0,-1.857038260E0,-1.757103920E0,-2.831464529E0
9.230451302E0,-1.716163039E0,-1.690934181E0,-1.624665737E0
9.247117968E0,-1.336987138E0,-1.711862087E0,1.136784554E0
9.263784634E0,-9.448378086E-1,-1.919847012E0,-1.983785629E-1
9.280451300E0,-9.136648178E-1,-2.036545277E0,-1.381625175E0
9.297117966E0,-9.755811691E-1,-1.845325947E0,-1.610574245E0
9.313784632E0,-7.489298582E-1,-1.422336102E0,-1.835906029E0
9.330451298E0,-5.169831514E-1,-1.046155930E0,-1.871037483E0
9.347117964E0,-1.051397324E-1,-9.012436867E-1,-1.381231308E0
9.363784630E0,-2.471303940E-2,-1.118639469E0,-1.089729786E0
9.380451296E0,2.033588886E-1,-1.582934856E0,-8.335466385E-1
9.397117962E0,7.297952175E-1,-1.774144173E0,-3.847641945E-1
9.413784628E0,1.180352449E0,-1.864264011E0,2.421135902E-1
9.430451294E0,1.327859640E0,-1.873829842E0,6.892266273E-1
9.447117960E0,1.504608870E0,-1.335996151E0,1.199030399E0
9.463784626E0,1.388542652E0,-7.170553207E-1,7.962551117E-1
9.480451292E0,-1.825602055E-1,1.625375748E-1,4.460716248E-2
9.497117958E0,-1.912800431E0,1.851605415E0,-3.564200401E-1
9.513784624E0,-2.372415066E0,4.733931065E0,8.525846481E0
9.530451290E0,7.457034588E-1,5.063222408E0,6.480706215E0
9.547117956E0,8.953579664E-1,3.842539787E0,-3.597192764E0
9.563784622E0,7.436764240E-2,2.959342003E0,-4.500528336E0
9.580451288E0,-5.371208191E-1,2.756934166E0,-2.935939550E0
9.597117954E0,-1.580213308E0,2.492541313E0,3.702688217E-1
9.613784620E0,-1.407413721E0,1.262599945E0,3.121630669E0
9.630451286E0,-6.682550907E-2,2.773141861E-1,1.829913139E0
9.647117952E0,5.166760683E-1,-1.335573196E-1,-1.815765381E0
9.663784618E0,6.255269051E-2,-4.280920029E-1,-2.477732897E0
9.680451284E0,-8.878219128E-2,-9.259347916E-1,-1.678821325E0
9.697117950E0,1.838864088E-1,-1.019244194E0,-3.917474747E-1
9.713784616E0,-1.954722404E-2,-7.526192665E-1,1.098618507E-1
9.730451282E0,-3.779672384E-1,-2.684478760E-1,-7.601714134E-1
9.747117948E0,-6.496137381E-1,-7.892894745E-2,-1.360470533E0
9.763784614E0,-7.394787073E-1,-3.723859787E-1,-1.469035864E0
9.780451280E0,-5.964485407E-1,-6.951313019E-1,-1.415841818E0
9.797117946E0,-4.942487478E-1,-9.793004990E-1,-1.123297453E0
9.813784612E0,-3.753340244E-1,-1.172884941E0,-7.913386822E-1
9.830451278E0,4.219725728E-1,-1.043495178E0,-4.823844433E-1
9.847117944E0,6.352492571E-1,-8.383560181E-1,-1.922075748E-1
9.863784610E0,3.902699351E-1,-8.852405548E-1,-1.320939064E-1
9.880451276E0,4.597843885E-1,-1.145321846E0,-1.515741348E-1
9.897117942E0,7.547348738E-1,-1.389359951E0,1.385860443E-1
9.913784608E0,8.252767324E-1,-1.447684288E0,2.791006565E-1
9.930451274E0,7.241680026E-1,-1.066056252E0,-1.193962097E-1
9.947117940E0,7.670510411E-1,-7.734136581E-1,-2.885589600E-1
9.963784606E0,8.598930836E-1,-5.159101486E-1,-5.226993561E-2
9.980451272E0,8.391561508E-1,-4.171857834E-1,1.559078693E-1
9.997117938E0,7.463613749E-1,-3.054141998E-1,2.044520378E-1
1.001378460E1,6.116744876E-1,-3.170700073E-1,3.064854145E-1
1.003045127E1,5.543782115E-1,-3.570680618E-1,2.403285503E-1
1.004711794E1,5.305635333E-1,-3.315277100E-1,3.939805031E-1
1.006378460E1,3.472722173E-1,-2.342863083E-1,7.135260105E-1
1.008045127E1,2.656261921E-1,-1.721916199E-1,8.998084068E-1
1.009711793E1,2.559539080E-1,-2.082786560E-1,6.672127247E-1
1.011378460E1,2.102946043E-1,-3.354616165E-1,3.435995579E-1
1.013045127E1,8.394426107E-2,-2.590198517E-1,1.545846462E-1
1.014711793E1,1.442180872E-1,2.563476562E-2,2.372411489E-1
1.016378460E1,3.447989821E-1,9.413242340E-2,3.960727453E-1
1.018045126E1,6.419329047E-1,3.404521942E-2,2.703119516E-1
1.019711793E1,7.646496296E-1,1.456594467E-1,1.656302214E-1
1.021378460E1,6.105545163E-1,4.616270065E-1,3.773012161E-1
1.023045126E1,4.949170351E-1,6.350908279E-1,5.583229065E-1
1.024711793E1,4.721403420E-1,8.074913025E-1,6.730363369E-1
1.026378459E1,5.201836824E-1,9.455327988E-1,7.739045620E-1
1.028045126E1,4.854684174E-1,1.118357658E0,7.718603611E-1
1.029711793E1,5.580491424E-1,1.351286888E0,5.225766897E-1
1.031378459E1,6.310262680E-1,1.811275482E0,2.432727814E-1
1.033045126E1,6.726951599E-1,2.144398689E0,4.069186449E-1
1.034711792E1,1.226306319E0,2.439606667E0,1.210924029E0
1.036378459E1,1.545726538E0,2.900053024E0,1.454277039E0
1.038045126E1,1.147413015E0,3.353192329E0,1.315663338E0
1.039711792E1,7.952709198E-1,3.488241196E0,7.550936341E-1
1.041378459E1,9.946675301E-1,3.061253548E0,6.943202019E-2
1.043045125E1,1.344629884E0,3.043146133E0,-8.349788189E-2
1.044711792E1,8.745644093E-1,2.962664604E0,6.059200764E-1
1.046378459E1,6.495319009E-1,2.113546371E0,7.378888130E-1
1.048045125E1,5.706297159E-1,7.083864212E-1,1.444432735E-1
1.049711792E1,2.978306115E-1,-3.877525330E-1,-3.297617435E-1
1.051378458E1,-9.860562086E-1,-1.064561844E0,-6.301310062E-1
1.053045125E1,-2.418105602E0,-9.615993500E-1,-1.675295830E-1
1.054711792E1,-2.680784225E0,-4.620008469E-1,1.588661671E-1
1.056378458E1,-1.286965370E0,-3.542795181E-1,-1.466034651E-1
1.058045125E1,3.588106930E-1,-4.906587601E-1,-1.791422367E-1
1.059711791E1,9.139301777E-1,-3.868455887E-1,8.306243420E-1
1.061378458E1,1.226194263E0,3.799085617E-1,2.633188486E0
1.063045125E1,9.482612610E-1,7.505350113E-1,2.143912792E0
1.064711791E1,-5.486933589E-1,1.761150360E-2,-2.935755968E0
1.066378458E1,-7.280008793E-1,-1.234666824E0,-3.938190460E0
1.068045124E1,-2.355172634E-1,-1.796804428E0,-2.910560608E0
1.069711791E1,-2.355172634E-1,-1.796804428E0,-2.910560608E0
1.071378458E1,1.704051495E-1,-1.640743732E0,-1.357112646E0
1.073045124E1,-4.418347478E-1,-1.275863171E0,-8.054153919E-1
1.074711791E1,-5.284644961E-1,-1.373254299E0,-1.100928545E0
1.076378457E1,-1.158223376E-1,-1.795452595E0,-2.178714514E0
1.078045124E1,2.753303200E-2,-2.026801586E0,-2.844923735E0
1.079711791E1,1.320007145E-1,-2.086656570E0,-3.524090290E0
1.081378457E1,9.217250347E-2,-1.813708782E0,-3.846831322E0
1.083045124E1,9.217250347E-2,-1.813708782E0,-3.846831322E0
1.084711790E1,-1.340734124E0,-1.030477524E0,-4.678797722E-1
1.086378457E1,-1.124603868E0,-8.961935043E-1,4.194903374E-1
1.088045124E1,-4.762185812E-1,-1.205627441E0,-4.727964401E-1
1.089711790E1,2.069025338E-1,-1.657359123E0,-1.565757275E0
1.091378457E1,2.702219188E-1,-1.756581306E0,-1.507302999E0
1.093045123E1,5.900365114E-2,-1.746921539E0,-6.935496330E-1
1.094711790E1,7.572704554E-2,-1.552231789E0,-4.501707554E-1
1.096378457E1,7.572704554E-2,-1.552231789E0,-4.501707554E-1
1.098045123E1,4.779293537E-1,-8.940491676E-1,-7.347037792E-1
1.099711790E1,5.972469449E-1,-3.866786957E-1,-5.024194717E-1
1.101378456E1,6.928927302E-1,-1.226682663E-1,2.307395935E-1
1.103045123E1,1.015161276E0,3.276596069E-1,1.008043289E0
1.104711790E1,9.671121836E-1,5.518169403E-1,1.664068460E0
1.106378456E1,9.715290070E-1,5.765600204E-1,2.323120356E0
1.108045123E1,9.228768945E-1,3.696708679E-1,1.664815664E0
1.109711789E1,5.215449333E-1,-4.215621948E-2,2.002890110E-1
1.111378456E1,1.740370393E-1,-3.356838226E-1,-3.057529926E-1
1.113045123E1,-1.373723894E-1,-5.648155212E-1,-1.451172829E-1
1.114711789E1,8.885094523E-2,-6.503019333E-1,-1.255607605E-1
1.116378456E1,3.198286891E-2,-7.082548141E-1,3.395643234E-1
1.118045122E1,3.198286891E-2,-7.082548141E-1,3.395643234E-1
1.119711789E1,-1.797017306E-1,-6.297016144E-1,1.603996992E0
1.121378456E1,-4.234706461E-1,9.992742538E-1,9.198045731E-1
1.123045122E1,-4.833737612E-1,2.196026802E0,3.296661377E-1
1.124711789E1,1.777961850E-2,3.290420532E0,-7.825169563E-1
1.126378455E1,3.019132912E-1,3.655531883E0,-1.129174471E0
1.128045122E1,3.891059756E-1,3.740880013E0,-6.308290958E-1
1.129711789E1,9.253373146E-1,2.774671555E0,-1.370573044E-1
1.131378455E1,9.253373146E-1,2.774671555E0,-1.370573044E-1
1.133045122E1,4.979951978E-1,-3.068437576E-1,-1.528870821E0
1.134711788E1,8.295057714E-2,-1.104186058E0,-2.833938122E0
1.136378455E1,3.978468180E-1,-2.021594524E0,-2.203380108E0
1.138045122E1,9.621468782E-1,-2.739884853E0,-1.735794425E0
1.139711788E1,7.836406231E-1,-2.491982460E0,-2.129967690E0
1.141378455E1,-5.753290653E-1,-1.179903030E0,-2.562175989E0
1.143045121E1,-1.823604107E0,7.824993134E-2,-3.119376183E0
1.144711788E1,-2.218930960E0,1.068929672E0,-4.054012299E0
1.146378455E1,-1.384523034E0,1.054897308E0,-4.069397926E0
1.148045121E1,-2.049177289E-1,8.676376343E-1,-2.629542828E0
1.149711788E1,-4.138380289E-2,1.142933846E0,-1.526772141E0
1.151378454E1,1.062548012E-1,1.036417961E0,5.367493629E-2
1.153045121E1,8.681644201E-1,3.823242188E-1,1.972333670E0
1.154711788E1,1.233347893E0,-4.978275299E-1,1.816359282E0
1.156378454E1,7.915267944E-1,-8.841209412E-1,4.426360130E-1
1.158045121E1,2.764699161E-1,-1.223864555E0,-7.720247507E-1
1.159711787E1,2.143826187E-1,-1.012251854E0,-1.140497565E0
1.161378454E1,5.266967416E-1,-4.058933258E-1,-5.985790491E-1
1.163045121E1,5.738196373E-1,6.552314758E-2,4.249382019E-2
1.164711787E1,5.757194161E-1,3.713855743E-1,2.693169117E-1
1.166378454E1,6.913939118E-1,3.789682388E-1,-1.107605696E-1
1.168045120E1,1.089552999E0,2.007074356E-1,-1.669114828E-1
1.169711787E1,1.338610649E0,-3.743171692E-3,3.644351959E-1
1.171378454E1,1.412756443E0,-1.094312668E-1,6.130614281E-1
1.173045120E1,1.183023095E0,-2.359294891E-2,5.251923800E-1
1.174711787E1,7.818523645E-1,-1.940155029E-2,4.707813263E-1
1.176378453E1,5.542269945E-1,-1.300716400E-2,3.553171158E-1
1.178045120E1,8.057407141E-1,1.270437241E-1,2.886362076E-1
1.179711787E1,8.828216791E-1,3.289813995E-1,2.450871468E-1
1.181378453E1,5.356608629E-1,5.084857941E-1,2.969901562E-1
1.183045120E1,2.986624837E-2,6.559047699E-1,3.803447485E-1
1.184711786E1,-1.594805717E-1,4.424037933E-1,3.256758451E-1
1.186378453E1,-1.380487680E-1,6.363582611E-2,1.495963931E-1
1.188045120E1,5.079975724E-2,-8.998489380E-2,-4.978016019E-1
1.189711786E1,5.891878605E-1,1.203993797E0,-1.325635672E0
1.191378453E1,6.433272362E-1,2.124876022E0,-6.433813572E-1
1.193045119E1,8.322540522E-1,2.855751991E0,5.812054276E-1
1.194711786E1,8.588138223E-1,3.312792778E0,-3.195321560E-2
1.196378453E1,8.262411356E-1,2.941621780E0,-8.995693326E-1
1.198045119E1,9.677281380E-1,1.824697495E0,-1.243495703E0
1.199711786E1,5.478904247E-1,8.750801086E-1,-1.232755423E0
1.201378452E1,-1.416687965E-1,5.475702286E-1,-4.918760061E-1
1.203045119E1,-5.581989884E-1,6.165885925E-2,8.976385593E-1
1.204711786E1,-6.713554263E-1,-3.499059677E-1,1.029027462E0
1.206378452E1,-9.844617844E-1,-8.047103882E-1,-2.828412056E-1
1.208045119E1,-1.120855093E0,-1.087307930E0,-1.387502909E0
1.209711785E1,-5.659406781E-1,-9.572715759E-1,-1.788411379E0
1.211378452E1,-3.108720481E-1,-2.451457977E-1,-1.621427894E0
1.213045119E1,-6.497080922E-1,1.094925880E0,-1.546863556E0
1.214711785E1,-8.408519626E-1,1.701277733E0,-1.768753052E0
1.216378452E1,-6.245365143E-1,1.359077454E0,-2.159885883E0
1.218045118E1,-4.533517957E-1,4.540624619E-1,-2.451266289E0
1.219711785E1,-4.013516903E-1,-4.672956467E-1,-2.556741953E0
1.221378452E1,-2.213676870E-1,-7.605934143E-1,-2.229828596E0
1.223045118E1,2.409458160E-2,-7.884960175E-1,-1.560973406E0
1.224711785E1,4.989923835E-1,-7.306175232E-1,-6.599051952E-1
1.226378451E1,8.704748154E-1,-8.350954056E-1,-2.434449196E-1
1.228045118E1,1.182435393E0,-9.722375870E-1,-1.019356251E-1
1.229711785E1,1.199505448E0,-8.517065048E-1,-2.979576588E-1
1.231378451E1,9.101793170E-1,-1.509656906E-1,-8.704941273E-1
1.233045118E1,6.574135423E-1,3.659620285E-1,-1.319468737E0
1.234711784E1,5.531610250E-1,5.930328369E-1,-1.610309839E0
1.236378451E1,5.366644859E-1,4.368658066E-1,-1.059017897E0
1.238045118E1,7.379023433E-1,2.968168259E-1,-1.683151722E-1
1.239711784E1,8.573174477E-1,2.014713287E-1,1.822447777E-1
1.241378451E1,7.625351548E-1,4.787921906E-2,1.661033630E-1
1.243045117E1,4.770925641E-1,6.921863556E-2,-4.033064842E-2
1.244711784E1,2.359953821E-1,1.950006485E-1,-4.682059288E-1
1.246378451E1,2.803611159E-1,1.367673874E-1,-7.452654839E-1
1.248045117E1,3.485423028E-1,-7.616806030E-2,-6.622505188E-1
1.249711784E1,2.774644494E-1,-2.991638184E-1,-4.578912258E-1
1.251378450E1,2.239499390E-1,-4.824094772E-1,-1.980478764E-1
1.253045117E1,2.382659018E-1,-3.769083023E-1,-2.452468872E-2
1.254711784E1,2.990263402E-1,-1.268405914E-1,1.319272518E-1
1.256378450E1,5.678455830E-1,-6.342887878E-2,3.162932396E-2
1.258045117E1,7.131150961E-1,7.595062256E-3,-5.160045624E-2
1.259711783E1,6.058821678E-1,1.601619720E-1,-2.295491695E-1
1.261378450E1,7.009264231E-1,2.105617523E-1,-2.265868187E-1
1.263045117E1,9.454277754E-1,1.037101746E-1,-2.057485580E-1
1.264711783E1,1.189224243E0,5.232334137E-2,-2.610008717E-1
1.266378450E1,1.177352905E0,6.136322021E-2,-3.347470760E-1
1.268045116E1,9.812383056E-1,6.907463074E-3,-4.824430943E-1
1.269711783E1,9.812383056E-1,6.907463074E-3,-4.824430943E-1
1.271378450E1,7.987993956E-2,-3.779582977E-1,-6.988122463E-1
1.273045116E1,-2.107490897E-1,-5.121860504E-1,-1.107313395E0
1.274711783E1,-3.636126816E-1,-5.628089905E-1,-1.279292822E0
1.276378449E1,-7.395064831E-1,-6.672000885E-2,-1.330471754E0
1.278045116E1,-8.379360437E-1,1.090116501E0,-1.459722161E0
1.279711783E1,-1.429376006E-1,2.467433929E0,-2.243587494E0
1.281378449E1,-2.396593094E-1,2.909474373E0,-2.300553322E0
1.283045116E1,-2.396593094E-1,2.909474373E0,-2.300553322E0
1.284711782E1,-1.309496641E0,2.893190384E0,1.516820192E0
1.286378449E1,-3.791042566E-1,3.979539871E-1,-1.133458614E-1
1.288045116E1,3.333046436E-1,-7.175664902E-1,-2.626022577E0
1.289711782E1,-3.591717482E-1,-1.074988365E0,-3.449484348E0
1.291378449E1,-9.906796217E-1,-1.157065392E0,-2.107186556E0
1.293045115E1,-7.563920021E-1,-1.261802197E0,-3.625884056E-1
1.294711782E1,4.143303037E-1,-9.167509079E-1,-8.730885983E-1
1.296378449E1,5.933605433E-1,3.697328568E-1,-2.914680243E0
1.298045115E1,2.858635783E-1,1.354279518E0,-3.277790785E0
1.299711782E1,-1.651902199E-1,2.199577332E0,-1.201065183E0
1.301378448E1,-3.706636727E-1,2.214879036E0,1.865604639E0
1.303045115E1,2.489208877E-1,9.355459213E-1,1.715152264E0
1.304711782E1,7.606126070E-1,5.853996277E-1,-7.254681587E-1
1.306378448E1,3.691113591E-1,5.807733536E-1,-2.240351677E0
1.308045115E1,1.432570815E-2,5.517835617E-1,-1.715496063E0
1.309711781E1,-1.357993484E-2,4.283666611E-1,-3.587720394E-1
1.311378448E1,3.863805830E-1,1.772842407E-1,1.528134346E-1
1.313045115E1,8.185619116E-1,-3.606739044E-1,-1.509118080E-1
1.314711781E1,7.311292887E-1,-5.090169907E-1,-6.937073469E-1
1.316378448E1,2.871848941E-1,-5.327224731E-1,-6.621730328E-1
1.318045114E1,-1.089975685E-1,-3.314094543E-1,-3.802299500E-3
1.319711781E1,-4.810407758E-3,-1.641464233E-1,4.945528507E-1
1.321378448E1,4.741077423E-1,-1.174831390E-1,2.711335421E-1
1.323045114E1,6.612180471E-1,-1.343717575E-1,-1.846278906E-1
1.324711781E1,7.206170559E-1,-1.704950333E-1,-5.984359384E-1
1.326378447E1,5.686248541E-1,-1.575269699E-1,-3.691899180E-1
1.328045114E1,3.918408155E-1,-2.585220337E-1,2.868382931E-1
1.329711781E1,4.505013824E-1,-2.133750916E-1,3.903964758E-1
1.331378447E1,5.018182993E-1,1.546735764E-1,7.173609734E-2
1.333045114E1,4.171354473E-1,3.906173706E-1,-1.372360587E-1
1.334711780E1,2.374732494E-1,8.383750916E-2,2.583620548E-1
1.336378447E1,2.145027816E-1,-2.960624695E-1,7.309134603E-1
1.338045114E1,8.619322181E-1,-2.220573425E-1,8.298765421E-1
1.339711780E1,1.142189622E0,8.525371552E-2,4.098321795E-1
1.341378447E1,9.915949702E-1,6.528415680E-1,-3.985391855E-1
1.343045113E1,7.765136361E-1,8.533306122E-1,-2.107474804E-1
1.344711780E1,7.918462157E-1,1.168317795E0,5.845241547E-1
1.346378447E1,8.478682637E-1,1.645763397E0,4.434732795E-1
1.348045113E1,5.755839348E-1,2.347019196E0,3.534355164E-1
1.349711780E1,2.708091736E-1,2.686658859E0,3.554710150E-1
1.351378446E1,6.316677332E-1,2.694922447E0,-5.775678158E-2
1.353045113E1,8.246335983E-1,2.942797661E0,2.529603243E-2
1.354711780E1,8.113304377E-1,3.863174438E0,5.975610614E-1
1.356378446E1,6.456329823E-1,4.913712502E0,4.290931821E-1
1.358045113E1,5.108027458E-1,6.347496033E0,1.191954017E-1
1.359711779E1,2.547540069E-1,6.699895859E0,6.502135992E-1
1.361378446E1,-1.822178364E-1,4.880030632E0,1.259723663E0
1.363045113E1,1.589289308E-2,2.972110748E0,9.411911964E-1
1.364711779E1,3.103256226E-3,7.560062408E-1,3.683786392E-1
1.366378446E1,-2.722737193E-1,-4.441022873E-1,2.302896976E-1
1.368045112E1,-1.119205356E0,-1.222960472E0,3.018685579E-1
1.369711779E1,-2.876212358E0,-8.984966278E-1,1.238475442E0
1.371378446E1,-3.329007864E0,-1.786851883E-1,1.154283285E0
1.373045112E1,-1.737173080E0,5.772409439E-1,-8.402550220E-1
1.374711779E1,-8.493652940E-1,1.489976883E0,-1.826811075E0
1.376378445E1,-8.676666021E-1,1.646451950E0,-8.259050846E-1
1.378045112E1,-9.640072584E-1,1.158443451E0,-7.141611576E-1
1.379711779E1,1.887965798E-1,2.190561295E-1,-2.411371231E0
1.381378445E1,6.737253070E-1,-1.962356567E-1,-2.441362381E0
1.383045112E1,1.893098503E-1,-2.614822388E-1,3.465557098E-1
1.384711778E1,-6.456719041E-1,-2.281570435E-1,2.344960690E0
1.386378445E1,-6.752698421E-1,-8.721957207E-1,1.334975719E0
1.388045112E1,-2.891527116E-1,-1.372215271E0,-1.118860722E0
1.389711778E1,-2.859371006E-1,-1.516467094E0,-3.141577721E0
1.391378445E1,-3.496451378E-1,-1.474745274E0,-3.127664328E0
1.393045111E1,-4.325169921E-1,-1.244022369E0,-1.817243338E0
1.394711778E1,-3.301387429E-1,-9.354104996E-1,-4.029579163E-1
1.396378445E1,-1.566946507E-1,-6.516470909E-1,1.583623886E-1
1.398045111E1,-1.427485943E-1,-8.684148788E-1,-7.762241364E-2
1.399711778E1,-5.552514791E-1,-1.184937000E0,-5.612163544E-1
1.401378444E1,-1.150368452E0,-1.318800926E0,-1.695001125E0
1.403045111E1,-1.400599599E0,-1.854148865E0,-3.286272049E0
1.404711778E1,-1.177700043E0,-2.129686832E0,-3.585191965E0
1.406378444E1,-3.817350864E-1,-2.171915531E0,-3.108322382E0
1.408045111E1,-2.550007105E-1,-1.954697132E0,-2.139435768E0
1.409711777E1,-8.127086163E-1,-1.585977077E0,1.521282196E-1
1.411378444E1,-1.137329102E0,-1.165230274E0,1.523991585E0
1.413045111E1,-1.336325884E0,-9.500460625E-1,-1.438079357E0
1.414711777E1,-9.467848539E-1,-1.310201645E0,-3.086290598E0
1.416378444E1,-4.867804050E-1,-1.622018337E0,-1.371962547E0
1.418045110E1,-8.619854450E-1,-1.925476551E0,3.549432755E-2
1.419711777E1,-1.570041895E0,-2.314851284E0,-1.169377804E0
1.421378444E1,-1.504352331E0,-2.396834850E0,-1.117848873E0
1.423045110E1,-1.261748314E0,-2.180794239E0,6.583909988E-1
1.424711777E1,1.515123844E-1,-1.567670822E0,1.825521469E0
1.426378443E1,1.167864442E0,-1.006478310E0,1.702780724E0
1.428045110E1,1.465562582E0,-2.893295288E-1,2.021330357E0
1.429711777E1,1.474561572E0,1.209033012E0,4.744695663E0
1.431378443E1,-1.444711685E-1,4.286938667E0,1.183777332E0
1.433045110E1,5.428099632E-2,4.788250923E0,6.497812271E-1
1.434711776E1,-8.912190199E-1,4.233693123E0,-1.731026649E0
1.436378443E1,-2.960575819E-1,4.702806950E0,1.703528404E0
1.438045110E1,-4.142336845E-1,4.557837486E0,3.639001846E-1
1.439711776E1,-6.140363216E-1,3.632917404E0,-1.315388203E0
1.441378443E1,-7.845230103E-1,2.473872185E0,-1.752783775E0
1.443045109E1,-7.085924149E-1,1.950447083E0,-1.639078379E0
1.444711776E1,-4.715397358E-1,1.080148697E0,-1.140974522E0
1.446378443E1,-6.052839756E-2,-1.506175995E-1,-9.189782143E-1
1.448045109E1,5.409064293E-1,-1.569193840E0,-1.267695665E0
1.449711776E1,8.601118326E-1,-2.138545036E0,-1.535119295E0
1.451378442E1,7.102612257E-1,-1.934179306E0,-1.110694170E0
1.453045109E1,-8.743107319E-3,-1.081344128E0,-6.578340530E-1
1.454711776E1,-2.985440493E-1,6.314373016E-2,-7.484230995E-1
1.456378442E1,-2.177804708E-1,7.456703186E-1,-1.075551271E0
1.458045109E1,-2.497072220E-1,7.391519547E-1,-1.232536554E0
1.459711775E1,9.603720903E-2,1.784543991E-1,-1.089906454E0
1.461378442E1,6.291106343E-1,-5.145902634E-1,-7.190444469E-1
1.463045109E1,5.346463919E-1,-6.264991760E-1,-4.124195576E-1
1.464711775E1,3.425955772E-1,-4.643630981E-1,-2.392048836E-1
1.466378442E1,2.625393867E-1,-2.295522690E-1,-2.793428898E-1
1.468045108E1,1.822876930E-2,-4.375457764E-3,-4.811818600E-1
1.469711775E1,1.434493065E-2,-1.302413940E-1,-3.702678680E-1
1.471378442E1,2.844313383E-1,-6.171884537E-1,-5.090832710E-2
1.473045108E1,2.155295610E-1,-7.932796478E-1,-3.345272541E-1
1.474711775E1,9.672695398E-2,-8.642578125E-1,-6.420652866E-1
1.476378441E1,1.306896806E-1,-1.029878616E0,-7.845823765E-1
1.476378441E1,9.672695398E-2,-8.642578125E-1,-6.420652866E-1
1.479711775E1,1.667481661E-2,-1.458650112E0,-1.775879860E-1
1.481378441E1,-6.461322308E-2,-1.379069328E0,-5.897712708E-2
1.483045108E1,-1.555082202E-1,-1.055390358E0,3.291246891E-1
1.484711774E1,2.695006132E-2,-7.754554749E-1,6.589019299E-1
1.486378441E1,3.726223707E-1,-7.198028564E-1,8.420207500E-1
1.488045108E1,5.175043941E-1,-7.368803024E-1,6.653981209E-1
1.489711774E1,1.026561856E0,-5.317773819E-1,1.986922026E-1
1.491378441E1,1.376028061E0,-3.245487213E-1,1.139349937E-1
1.493045107E1,1.357680559E0,-6.579589844E-2,5.262929201E-1
1.494711774E1,1.355670691E0,5.831241608E-2,8.625545502E-1
1.496378441E1,1.423928857E0,1.552104950E-1,1.362642407E0
1.498045107E1,1.465958595E0,2.061052322E-1,1.301697135E0
1.499711774E1,1.474043489E0,2.311220169E-1,5.043604374E-1
1.501378440E1,1.467145801E0,3.429737091E-1,1.944407225E-1
1.503045107E1,1.538039684E0,5.123777390E-1,1.312209368E-1
1.504711774E1,1.397873640E0,8.897829056E-1,1.311922073E-1
1.506378440E1,1.266196012E0,1.818755150E0,6.676077843E-2
1.508045107E1,1.103894114E0,2.601355553E0,1.344572306E-1
1.509711773E1,8.051587343E-1,3.200815201E0,-5.696463585E-2
1.511378440E1,5.876626968E-1,3.479082108E0,8.145964146E-2
1.513045107E1,4.056113958E-2,3.819577217E0,1.166474104E0
1.514711773E1,-3.166581392E-1,4.371438980E0,1.471746564E0
1.516378440E1,-1.078097343E0,5.026811600E0,1.224742413E0
1.518045106E1,-1.606950521E0,4.619926453E0,7.264603376E-1
1.519711773E1,-8.773753643E-1,2.969499588E0,-1.071543813E0
1.521378440E1,-2.631698251E-1,1.693476677E0,-1.382819533E0
1.523045106E1,-4.857586622E-1,1.200530052E0,-4.032463431E-1
1.524711773E1,-8.412730098E-1,2.125310898E-1,1.084049225E0
1.526378439E1,-1.082623243E0,-6.683893204E-1,2.123042822E0
1.528045106E1,-1.388293028E0,-1.226686478E0,2.483661413E0
1.529711773E1,-1.352921009E0,-1.048409462E0,1.856825352E0
1.531378439E1,-1.168289900E0,-4.775447845E-1,7.355325222E-1
1.533045106E1,-1.038086414E0,1.274957657E-1,-9.731459618E-2
1.534711772E1,-5.505650043E-1,5.680341721E-1,-6.035957336E-1
1.536378439E1,-1.495778561E-3,7.161149979E-1,-8.763592243E-1
1.538045106E1,4.112962484E-1,8.601236343E-1,-1.537273407E0
1.539711772E1,4.556956887E-1,6.111288071E-1,-1.730407953E0
1.541378439E1,2.928224206E-1,-3.771209717E-2,-1.322139263E0
1.543045105E1,3.184660077E-1,-5.710668564E-1,-8.101665974E-1
1.544711772E1,3.125752211E-1,-8.769869804E-1,4.089474678E-1
1.546378439E1,-7.439978719E-1,-8.162264824E-1,1.386810780E0
1.548045105E1,-1.074022412E0,-9.485726357E-1,9.771513939E-1
1.549711772E1,-7.048850060E-1,-1.101218700E0,-2.329554558E-1
1.551378438E1,-3.596516550E-1,-1.479948997E0,-1.369230509E0
1.553045105E1,-4.148023725E-1,-1.556643963E0,-1.031643152E0
1.554711772E1,-9.761201143E-1,-1.096726418E0,3.370628357E-1
1.556378438E1,-1.290916204E0,-6.698951721E-1,8.060913086E-1
1.558045105E1,-1.166661739E0,-5.940513611E-1,-1.750917435E-1
1.559711771E1,-7.592003345E-1,-1.217300415E0,-1.258384466E0
1.561378438E1,-3.328692913E-1,-1.878766060E0,-2.442427397E0
1.563045105E1,-2.134507895E-1,-1.960190773E0,-2.889541626E0
1.564711771E1,-9.249329567E-2,-1.744114876E0,-2.748477697E0
1.566378438E1,-3.424072266E-2,-1.464569569E0,-2.335178137E0
1.568045104E1,-9.098792076E-2,-9.268207550E-1,-1.171047211E0
1.569711771E1,-3.955514431E-1,-6.015205383E-1,-6.468105316E-2
1.571378438E1,-7.083401680E-1,-6.109151840E-1,5.023875237E-1
1.573045104E1,-6.485158205E-1,-9.879460335E-1,-4.006791115E-1
1.574711771E1,-4.380701780E-1,-1.154888630E0,-1.053461552E0
1.576378437E1,-1.640522480E-1,-1.405455112E0,-1.193992615E0
1.578045104E1,1.615357399E-2,-1.594712257E0,-1.027631760E0
1.579711771E1,-4.512429237E-2,-1.879796982E0,-6.167540550E-1
1.581378437E1,-3.352615833E-1,-1.886028767E0,-1.302046776E-1
1.583045104E1,-5.291142464E-1,-1.762779713E0,4.894785881E-1
1.584711770E1,-3.412059546E-1,-1.728956699E0,7.007822990E-1
1.586378437E1,8.739614487E-2,-1.662300110E0,5.427374840E-1
1.588045104E1,4.087684155E-1,-1.451746464E0,4.498338699E-1
1.589711770E1,8.389348984E-1,-7.682495117E-1,5.092577934E-1
1.591378437E1,1.150196433E0,-6.664323807E-2,-7.714033127E-2
1.593045103E1,8.216540813E-1,3.369765282E-1,-1.340867519E0
1.594711770E1,-1.546113491E-1,9.353351593E-1,2.176348686E0
1.596378437E1,-2.375755548E0,4.733664036E0,3.513458729E0
1.598045103E1,1.548104763E0,4.275741100E0,4.594072819E0
1.599711770E1,5.241661072E-1,2.561621666E0,3.180861473E-1
1.601378436E1,-9.285503626E-1,2.702627182E0,1.630379677E0
1.603045103E1,-1.501069069E0,2.743549347E0,-5.928244591E-1
1.604711770E1,-1.084099770E0,2.467874527E0,-3.604868889E0
1.606378436E1,2.065886259E-1,2.313328743E0,-2.356347084E0
1.608045103E1,3.526017666E-1,2.322120667E0,2.996897697E-1
1.609711769E1,-9.506630898E-2,2.137974739E0,-3.808135986E-1
1.611378436E1,-3.606570959E-1,1.066532135E0,-1.303207159E0
1.613045103E1,-4.883764982E-1,-7.742867470E-1,-1.753288507E0
1.614711769E1,-3.770071268E-1,-1.886258125E0,-1.545029879E0
1.616378436E1,2.865624428E-2,-2.398468971E0,-5.373892784E-1
1.618045102E1,-1.300717592E-1,-2.059993267E0,2.354269028E-1
1.619711769E1,-7.502917051E-1,-9.426722527E-1,1.304421425E-1
1.621378436E1,-7.829917669E-1,-7.558155060E-2,-8.499352932E-1
1.623045102E1,-7.832468748E-1,-1.021003723E-2,-1.053877592E0
1.624711769E1,-9.097596407E-1,-5.293579102E-1,-8.493070602E-1
1.626378435E1,-6.558729410E-1,-9.656524658E-1,-5.938320160E-1
1.628045102E1,2.475634813E-1,-9.903078079E-1,-2.199797630E-1
1.629711769E1,3.467332125E-1,-6.935997009E-1,-2.517440319E-1
1.631378435E1,2.396631241E-1,-3.369684219E-1,-7.309577465E-1
1.633045102E1,3.192244768E-1,-7.810974121E-2,-8.060920238E-1
1.634711768E1,3.192244768E-1,-7.810974121E-2,-8.060920238E-1
1.636378435E1,3.784783483E-1,-1.803264618E-1,-9.979009628E-3
1.638045102E1,4.792010188E-1,-4.368247986E-1,-5.079698563E-2
1.639711768E1,6.814465523E-1,-5.304231644E-1,-3.520839214E-1
1.641378435E1,1.057495594E0,-5.589399338E-1,-5.476300716E-1
1.643045101E1,1.021920681E0,-5.327749252E-1,-5.402011871E-1
1.644711768E1,5.778976083E-1,-5.301933289E-1,-4.674191475E-1
1.646378435E1,2.937746048E-1,-5.657234192E-1,-2.903375626E-1
1.648045101E1,1.439699531E-1,-7.872076035E-1,3.127710819E-1
1.649711768E1,8.713310957E-2,-9.114656448E-1,4.182336330E-1
1.651378434E1,1.230635047E-1,-8.562622070E-1,-2.330327034E-1
1.653045101E1,8.423560858E-2,-6.592960358E-1,-4.558942318E-1
1.654711768E1,1.065804362E-1,-3.658647537E-1,2.473077774E-1
1.656378434E1,1.600735784E-1,-2.132530212E-1,6.648740768E-1
1.658045101E1,4.540904760E-1,-1.525869370E-1,6.770374775E-1
1.659711767E1,6.395112872E-1,-1.873464584E-1,4.849307537E-1
1.661378434E1,6.062255502E-1,-9.715080261E-2,3.929127455E-1
1.663045101E1,7.894401550E-1,-1.024436951E-2,5.545374155E-1
1.664711767E1,8.953409195E-1,1.338653564E-1,7.155623436E-1
1.666378434E1,8.622995019E-1,1.256761551E-1,6.430009604E-1
1.668045100E1,7.036860585E-1,-6.502151489E-2,4.209070206E-1
1.669711767E1,6.325898170E-1,-1.851177216E-1,3.846750259E-1
1.671378434E1,7.770988941E-1,-2.411813736E-1,4.464175701E-1
1.673045100E1,8.325939178E-1,-1.886672974E-1,5.754073858E-1
1.674711767E1,8.711867332E-1,5.434989929E-3,3.890279531E-1
1.676378433E1,6.415167451E-1,4.469604492E-1,8.999304771E-1
1.678045100E1,6.957211494E-1,7.537708282E-1,1.040657043E0
1.679711767E1,7.113553286E-1,1.297291756E0,-7.629048824E-2
1.681378433E1,8.778851032E-1,1.715541840E0,-5.648015738E-1
1.683045100E1,1.212200165E0,2.137672424E0,-2.746928930E-1
1.684711766E1,8.421902657E-1,2.750407219E0,3.995568752E-1
1.686378433E1,-4.140841961E-2,3.985808372E0,8.412359953E-1
1.688045100E1,-7.816620469E-1,4.945365906E0,3.056367636E-1
1.689711766E1,-2.017247438E0,5.710395813E0,-8.955252767E-1
1.691378433E1,-2.886723757E0,5.649205208E0,-1.504613638E0
1.693045099E1,-2.347087622E0,4.034140587E0,-1.029075623E0
1.694711766E1,-1.082041025E0,2.658600807E0,-5.659151077E-2
1.696378433E1,-7.001365423E-1,1.068609238E0,1.461083531E0
1.698045099E1,-9.823354483E-1,-6.170749664E-2,2.444613218E0
1.699711766E1,-1.277717352E0,-1.246319771E0,3.557074547E0
1.701378432E1,-1.604485512E0,-1.423239708E0,3.883264542E0
1.703045099E1,-1.717140794E0,-6.042470932E-1,3.415809393E0
1.704711766E1,-1.268714666E0,-4.385471344E-2,2.216168165E0
1.706378432E1,-2.958965600E-1,1.450700760E-1,2.432320118E-1
1.708045099E1,1.979116797E-1,-5.207061768E-3,-1.081054926E0
1.709711765E1,3.402221799E-1,-1.692132950E-1,-2.335199833E0
1.711378432E1,6.216657162E-2,-2.481613159E-1,-2.795666933E0
1.713045099E1,-2.165537179E-1,-2.411966324E-1,-1.800050259E0
1.714711765E1,-1.226137877E-1,8.017826080E-2,4.958200455E-1
1.716378432E1,-2.387951314E-1,2.998886108E-1,2.758599043E0
1.718045098E1,-8.179758191E-1,-1.321105957E-1,2.565806627E0
1.719711765E1,-9.917591810E-1,-7.493152618E-1,-2.318184376E-1
1.721378432E1,-5.857151747E-1,-8.590755463E-1,-2.266132593E0
1.723045098E1,4.858613014E-2,-6.959238052E-1,-3.188848019E0
1.724711765E1,-3.378084898E-1,2.112379074E-1,-2.628622055E0
1.726378431E1,-6.125756502E-1,8.227043152E-1,-2.575294256E0
1.728045098E1,-6.300839186E-1,-4.763822556E-1,-1.663988113E0
1.729711765E1,-7.389521599E-1,-2.270143986E0,-2.198629379E-1
1.731378431E1,-8.553416729E-1,-3.389687538E0,6.548404694E-3
1.733045098E1,-1.330041647E0,-3.230171680E0,-7.937035561E-1
1.734711764E1,-1.719014406E0,-2.761703491E0,-8.995981216E-1
1.736378431E1,-1.899959207E0,-2.351712227E0,-6.686825752E-1
1.738045098E1,-1.998902082E0,-1.976237297E0,-1.184958458E0
1.739711764E1,-1.713977933E0,-1.748879433E0,-1.218825340E0
1.741378431E1,-1.189402819E0,-1.473009109E0,-1.092116356E0
1.743045097E1,-1.056005001E0,-1.157684803E0,-9.444732666E-1
1.744711764E1,-1.143633842E0,-9.017448425E-1,-7.960591316E-1
1.746378431E1,-1.173835635E0,-9.613180161E-1,-9.498329163E-1
1.748045097E1,-7.987439632E-1,-1.335364819E0,-1.795406342E0
1.749711764E1,-3.829185963E-1,-1.646460533E0,-2.124489307E0
1.751378430E1,9.750103951E-2,-1.961722374E0,-1.523890972E0
1.753045097E1,4.866795540E-1,-2.115502357E0,-3.498477936E-1
1.754711764E1,8.277912140E-1,-2.328136921E0,1.365572453E0
1.756378430E1,5.224690437E-1,-2.325286388E0,1.970041275E0
1.758045097E1,3.237907887E-1,-1.976640701E0,1.792825222E0
1.759711763E1,9.001703262E-1,-1.888655663E0,1.805737019E0
1.761378430E1,7.713985443E-1,-1.771100998E0,2.203841209E-1
1.763045097E1,-3.109529018E-1,-9.043316841E-1,2.099275589E-2
1.764711763E1,-2.573369503E0,2.311858654E0,2.627467155E0
1.766378430E1,6.298227310E-1,3.499101162E0,6.696382999E0
1.768045096E1,4.404642582E-1,2.928623676E0,-3.812130690E0
1.769711763E1,-6.305046082E-1,3.374058723E0,-2.209253311E0
1.771378430E1,-6.019346714E-1,4.659518242E0,-9.666867256E-1
1.773045096E1,-6.019346714E-1,4.659518242E0,-9.666867256E-1
1.773045096E1,-1.781599522E-1,5.415224075E0,3.197967052E0
1.776378429E1,-1.618599892E-2,2.889401436E0,-1.865198374E0
1.778045096E1,2.304723263E-1,3.220460892E0,-4.010062695E0
1.779711763E1,1.989850998E-1,2.296977043E0,-3.241977692E0
1.781378429E1,2.561304569E-1,8.175754547E-1,-2.157116652E0
1.783045096E1,3.856430054E-1,-1.128149986E0,-2.227935791E-1
1.784711762E1,2.328140736E-1,-1.853918076E0,9.528493881E-1
1.786378429E1,-3.546302319E-1,-1.555822849E0,6.266784668E-1
1.788045096E1,-7.265896797E-1,-9.593191147E-1,-3.506047726E-1
1.789711762E1,-5.552656651E-1,-9.039688110E-2,-1.429745197E0
1.791378429E1,-3.425464630E-1,-1.686744690E-1,-1.270464182E0
1.793045095E1,-1.583150625E-1,-8.600530624E-1,-7.931435108E-1
1.794711762E1,-1.648736000E-1,-1.129908085E0,-8.552587032E-1
1.796378429E1,-2.602499723E-1,-1.027102470E0,-1.039363146E0
1.798045095E1,-2.571446896E-1,-7.192239761E-1,-9.351508617E-1
1.799711762E1,1.976573467E-2,-3.906841278E-1,-7.363858223E-1
1.801378428E1,-2.401893139E-1,-2.733373642E-1,-5.826551914E-1
1.803045095E1,-6.847276092E-1,-3.783378601E-1,-2.710692883E-1
1.804711762E1,-5.242452621E-1,-6.699733734E-1,-5.092835426E-2
1.806378428E1,1.575497389E-1,-1.014928818E0,-2.769827843E-2
1.808045095E1,4.473030567E-1,-1.068387032E0,-5.795478821E-3
1.809711761E1,1.990849972E-1,-1.114250183E0,-1.893332005E-1
1.811378428E1,1.691229343E-1,-1.211522102E0,-4.791576862E-1
1.813045095E1,3.177033663E-1,-1.347227097E0,-9.107841253E-1
1.814711761E1,4.855657816E-1,-1.506970406E0,-1.056113005E0
1.816378428E1,7.596359849E-1,-1.454889297E0,-7.644886971E-1
1.818045094E1,6.179553866E-1,-1.153469086E0,-2.192463875E-1
1.819711761E1,6.233370900E-1,-4.156723022E-1,4.286766052E-1
1.821378428E1,5.603871346E-1,-5.702590942E-2,4.450988770E-1
1.823045094E1,7.440143824E-1,-9.480953217E-2,3.024890423E-1
1.824711761E1,7.992236614E-1,-1.597785950E-2,5.179762840E-3
1.826378427E1,7.619266510E-1,1.106700897E-1,-1.707544327E-1
1.828045094E1,6.562032104E-1,1.989927292E-1,-1.777005196E-2
1.829711761E1,5.570601821E-1,4.777908325E-4,3.249734640E-1
1.831378427E1,5.301771760E-1,-2.420482635E-1,3.468759060E-1
1.833045094E1,4.756098390E-1,-2.932481766E-1,2.650433779E-1
1.834711760E1,4.833935499E-1,-2.051811218E-1,3.580849171E-1
1.836378427E1,4.229467511E-1,-7.287979126E-3,3.384077549E-1
1.838045094E1,3.076598644E-1,1.353454590E-1,4.448444843E-1
1.839711760E1,2.199499607E-1,1.023759842E-1,7.474722862E-1
1.841378427E1,2.573353052E-1,7.631397247E-2,8.261457682E-1
1.843045093E1,3.844889402E-1,1.441087723E-1,7.788599133E-1
1.844711760E1,4.393993616E-1,4.830808640E-1,1.243489146E0
1.846378427E1,7.850959301E-1,8.691215515E-1,1.116344810E0
1.848045093E1,1.033822775E0,1.169621468E0,9.974151850E-1
1.849711760E1,9.862259626E-1,1.328779221E0,1.103609562E0
1.851378426E1,1.128221631E0,1.786514282E0,9.238713980E-1
1.853045093E1,9.184662104E-1,2.397578239E0,1.084995031E0
1.854711760E1,7.131389976E-1,3.362994194E0,1.105334640E0
1.856378426E1,6.533250809E-1,3.969405174E0,9.078299999E-2
1.858045093E1,2.560077012E-1,4.481600761E0,-3.308201432E-1
1.859711759E1,-7.971495390E-2,4.463725090E0,1.793705821E-1
1.861378426E1,-3.717389703E-1,4.216484070E0,7.168027163E-1
1.863045093E1,-3.844236732E-1,3.833329201E0,7.774648070E-1
1.864711759E1,-4.261789620E-1,2.451079369E0,5.891817808E-1
1.866378426E1,-2.365616709E-1,9.923553467E-1,2.512022257E-1
1.868045092E1,-1.938682497E-1,-8.252878189E-1,-2.633126974E-1
1.869711759E1,-5.794678926E-1,-1.574813843E0,-4.396853447E-1
1.871378426E1,-1.508814573E0,-1.134580612E0,4.299342632E-3
1.873045092E1,-1.754463434E0,3.280467987E-1,7.294023037E-1
1.874711759E1,-1.186664820E0,5.550699234E-1,9.756872058E-1
1.876378425E1,-6.972490251E-2,-1.382350922E-2,-1.564025879E-3
1.878045092E1,4.815943837E-1,-3.437442780E-1,-2.650904655E-2
1.879711759E1,6.380175948E-1,-6.288213730E-1,7.896026373E-1
1.881378425E1,5.710913539E-1,-6.884565353E-1,2.110351801E0
1.883045092E1,1.070962548E-1,-7.423744202E-1,1.659498930E0
1.884711758E1,-3.278965056E-1,-1.109490395E0,2.395312786E-1
1.886378425E1,-5.203984976E-1,-1.738769054E0,-1.363166332E0
1.888045092E1,-5.920006037E-1,-1.916916847E0,-2.027303696E0
1.889711758E1,-5.920006037E-1,-1.916916847E0,-2.027303696E0
1.891378425E1,-1.000104070E0,-1.419373512E0,-4.596109390E-1
1.893045091E1,-4.372344315E-1,-1.301329613E0,-1.502132893E0
1.894711758E1,6.984061003E-2,-1.342442989E0,-2.689874649E0
1.896378425E1,1.946528554E-1,-1.592202663E0,-3.076194763E0
1.898045091E1,1.116038561E-1,-1.936295986E0,-2.723900557E0
1.899711758E1,-2.477251291E-1,-2.232052803E0,-1.868103743E0
1.901378424E1,-5.162911415E-1,-2.349896908E0,-1.248546362E0
1.903045091E1,-8.788352609E-1,-2.509172440E0,-9.452478886E-1
1.904711758E1,-1.254467964E0,-2.475930691E0,-7.199387550E-1
1.906378424E1,-2.172417641E0,-2.051027298E0,-5.592422485E-1
1.908045091E1,-2.078720093E0,-1.841168880E0,-8.706831932E-1
1.909711757E1,-1.171194077E0,-1.680552959E0,-1.711894989E0
1.911378424E1,-7.308348417E-1,-1.526741028E0,-1.896451950E0
1.913045091E1,-5.766029358E-1,-1.700266361E0,-1.227031469E0
1.914711757E1,-6.057372093E-1,-1.815476418E0,-5.988988876E-1
1.916378424E1,-2.722302675E-1,-1.844182014E0,-3.610992432E-2
1.918045090E1,2.854132652E-2,-1.815576553E0,1.986217499E-1
1.919711757E1,5.135155916E-1,-1.588110447E0,2.441377640E-1
1.921378424E1,9.916164875E-1,-1.442322731E0,5.527915955E-1
1.923045090E1,1.604472637E0,-1.119975090E0,1.215905666E0
1.924711757E1,1.812500000E0,-6.021814346E-1,2.093430519E0
1.926378423E1,1.708085060E0,1.016740799E-1,2.492410660E0
1.928045090E1,1.457931995E0,8.890247345E-1,2.579610348E0
1.929711757E1,1.256677866E0,1.272309303E0,2.569588661E0
1.931378423E1,8.247955441E-1,1.172972679E0,1.887148857E0
1.933045090E1,2.306925654E-1,7.903718948E-1,1.785463810E0
1.934711756E1,-4.508866072E-1,3.922023773E-1,2.412886143E0
1.936378423E1,-4.850155115E-1,1.073446274E-1,2.745678425E0
1.938045090E1,-3.917532563E-1,-4.523849487E-2,2.259650946E0
1.939711756E1,-1.983517408E-2,-6.443977356E-2,1.440249205E0
1.941378423E1,1.004815102E-2,1.311370850E0,1.338861227E0
1.943045089E1,5.728853345E-1,2.631906509E0,6.259989738E-1
1.944711756E1,3.146412969E-1,3.434617996E0,-3.721201420E-1
1.946378423E1,1.424971819E-1,3.368318558E0,-1.673653841E0
1.948045089E1,-5.450665951E-3,2.375305176E0,-2.512767315E0
1.949711756E1,-6.384319663E-1,1.225072861E0,-2.542787552E0
1.951378422E1,-1.693826437E0,2.292690277E-1,-2.092867136E0
1.953045089E1,-1.666283011E0,-4.629983902E-1,-1.261091232E0
1.954711756E1,-9.576281309E-1,-1.357048512E0,-1.119083643E0
1.956378422E1,-2.078698874E-1,-2.116440773E0,-2.096593380E0
1.958045089E1,5.770576000E-2,-2.791379452E0,-2.776619434E0
1.959711755E1,-6.463339925E-1,-2.547061443E0,-2.868945837E0
1.961378422E1,-2.055737495E0,-1.217331886E0,-2.778126240E0
1.963045089E1,-2.317437649E0,-1.213970184E-1,-2.930659056E0
1.964711755E1,-1.399455786E0,7.721605301E-1,-2.136991501E0
1.966378422E1,-3.365505338E-1,1.061416626E0,-5.860171318E-1
1.968045088E1,4.887722731E-1,1.366262436E0,4.932506084E-1
1.969711755E1,6.237913966E-1,1.452842712E0,5.228180885E-1
1.971378422E1,8.714504838E-1,1.169702530E0,3.685784340E-2
1.973045088E1,1.017337561E0,8.244361877E-1,-4.781124592E-1
1.974711755E1,8.323180079E-1,4.967498779E-2,-4.684391022E-1
1.976378421E1,5.663917065E-1,-7.859268188E-1,-2.998902798E-1
1.978045088E1,2.880483866E-1,-1.170127869E0,-3.994123936E-1
1.979711755E1,-1.160144806E-3,-1.213923454E0,-6.044416428E-1
1.981378421E1,-5.072569847E-2,-9.922761917E-1,-5.991907120E-1
1.983045088E1,2.819484472E-2,-3.610048294E-1,-1.751968861E-1
1.984711754E1,2.793245912E-1,-7.809162140E-2,1.447181702E-1
1.986378421E1,5.924149156E-1,-1.112251282E-1,5.714991093E-1
1.988045088E1,8.578225970E-1,-2.019052505E-1,6.837484837E-1
1.989711754E1,1.317162514E0,-4.505968094E-1,6.078453064E-1
1.991378421E1,1.454789639E0,-5.496463776E-1,5.309669971E-1
1.993045087E1,1.436388850E0,-5.173616409E-1,5.837837458E-1
1.994711754E1,1.243371725E0,-3.512067795E-1,6.755769253E-1
1.996378421E1,9.264341593E-1,-2.883968353E-1,9.699186087E-1
1.998045087E1,9.388669133E-1,-4.387083054E-1,1.198155522E0
1.999711754E1,1.086780548E0,-4.176807404E-1,1.069500685E0
2.001378420E1,1.116052985E0,-4.210548401E-1,9.079589844E-1
2.003045087E1,1.116127253E0,-4.313611984E-1,9.454392195E-1
2.004711754E1,1.016997337E0,-4.113512039E-1,1.206484079E0
2.006378420E1,9.780300856E-1,-3.784036636E-1,1.422158360E0
2.008045087E1,8.371308446E-1,-1.970462799E-1,1.379164457E0
2.009711753E1,8.525192142E-1,1.971406937E-1,7.190027833E-1
2.011378420E1,9.382067323E-1,1.082341194E0,-7.241487503E-2
2.013045087E1,6.780139208E-1,2.516164780E0,-6.374996305E-1
2.014711753E1,3.768718243E-1,3.799091339E0,-6.220272779E-1
2.016378420E1,2.863382697E-1,5.600007057E0,6.155264378E-2
2.018045086E1,6.784150600E-1,6.159073830E0,4.900203943E-1
2.019711753E1,1.807442784E0,5.017088890E0,-1.012904644E-1
2.021378420E1,2.697685003E0,3.360738754E0,-5.079794526E-1
2.023045086E1,2.226859093E0,9.726524353E-1,-1.170354843E0
2.024711753E1,1.183441401E0,-1.069282532E0,-1.674328327E0
2.026378419E1,4.123987854E-1,-2.271716595E0,-1.974057317E0
2.028045086E1,4.123987854E-1,-2.271716595E0,-1.974057317E0
2.029711753E1,-1.522867918E0,-3.328500271E0,-2.295944929E0
2.031378419E1,-2.636019945E0,-2.749038696E0,-2.633561134E0
2.033045086E1,-3.360967398E0,-1.744733334E0,-3.230340481E0
2.034711752E1,-3.271509171E0,-2.718772888E-1,-3.914129257E0
2.036378419E1,-2.329275131E0,6.478719711E-1,-4.102549076E0
2.038045086E1,-5.646988153E-1,2.014994621E0,-3.251279593E0
2.039711752E1,7.012225389E-1,2.988335609E0,-2.126024246E0
2.041378419E1,1.466243863E0,3.124875069E0,3.484073162E0
2.043045085E1,-3.440895677E-2,1.537991524E0,4.327328205E0
2.044711752E1,-5.352801681E-1,1.865959167E-1,5.265736580E-2
2.046378419E1,-2.556443214E-1,-5.070352554E-1,-1.665359497E0
2.048045085E1,4.186414927E-2,-1.322103977E0,-1.368864059E0
2.049711752E1,2.530934811E-1,-1.643673420E0,-7.719769478E-1
2.051378418E1,5.975838900E-1,-1.505672455E0,-9.289977551E-1
2.053045085E1,7.684982419E-1,-1.380516529E0,-1.135717154E0
2.054711752E1,8.138693571E-1,-1.210810661E0,-1.192113876E0
2.056378418E1,7.068088055E-1,-9.199008942E-1,-1.292477608E0
2.058045085E1,7.387087941E-1,-4.014282227E-1,-1.580924749E0
2.059711751E1,1.007657886E0,-9.657764435E-2,-1.647752762E0
2.061378418E1,1.213039398E0,-4.323387146E-2,-1.065380812E0
2.063045085E1,5.797769427E-1,7.712554932E-2,-4.399063587E-1
2.064711751E1,-7.679543495E-1,-4.514980316E-2,3.883657455E-1
2.066378418E1,-8.929952383E-1,-6.911849976E-2,1.229288816E0
2.068045084E1,-5.074138641E-1,-1.148452759E-1,1.812818050E0
2.069711751E1,-1.871309429E-1,-3.013048172E-1,1.418433666E0
2.071378418E1,1.374636889E-1,-7.246494293E-1,4.430305958E-1
2.073045084E1,2.611916363E-1,-6.149320602E-1,5.139429569E-1
2.074711751E1,4.244620502E-1,-5.235166550E-1,1.061434031E0
2.076378417E1,4.244620502E-1,-5.235166550E-1,1.061434031E0
2.078045084E1,1.204406381E0,-1.169744492E0,-4.076910019E-2
2.079711751E1,5.212110877E-1,-1.012044907E0,-1.738895416E0
2.081378417E1,4.196928740E-1,-9.988975525E-1,-1.945337892E0
2.083045084E1,1.217655778E0,-7.002010345E-1,-7.129628658E-1
2.084711750E1,1.281292200E0,8.529348373E-1,-7.525408268E-1
2.086378417E1,4.093985558E-1,2.884609222E0,-1.285717249E0
2.088045084E1,2.553750277E-1,3.902633667E0,-1.321383953E0
2.089711750E1,1.660438180E-1,4.877686501E0,1.740206480E0
2.091378417E1,2.623425126E-1,3.391602516E0,4.706223011E-1
2.093045083E1,1.096243382E0,4.401493073E-1,-2.874445438E0
2.094711750E1,4.468942881E-1,-2.893190384E-1,-3.201858044E0
2.096378417E1,-9.681125879E-1,-2.461528778E-1,-2.060578823E0
2.098045083E1,-1.623684525E0,-3.895187378E-2,-1.279981613E0
2.099711750E1,-1.305838346E0,3.877811432E-1,-1.854256749E0
2.101378416E1,-8.156955242E-1,4.590206146E-1,-2.847987175E0
2.103045083E1,-7.075854540E-1,-1.588726044E-1,-3.024507761E0
2.104711750E1,-6.195073128E-1,-8.053188324E-1,-2.731451988E0
2.106378416E1,-3.908377886E-1,-1.132917404E0,-2.515362263E0
2.108045083E1,-3.080127239E-1,-9.422874451E-1,-2.126399994E0
2.109711749E1,-2.693749368E-1,-2.738733292E-1,-1.075924397E0
2.111378416E1,-1.335777044E-1,2.655582428E-1,-2.760539055E-1
2.113045083E1,4.235083163E-1,8.394088745E-1,5.746316910E-2
2.114711749E1,8.037047386E-1,1.015699387E0,-1.416051388E-1
2.116378416E1,1.150515676E0,9.078617096E-1,-2.326047421E-1
2.118045082E1,1.230084062E0,5.449266434E-1,-6.917691231E-2
2.119711749E1,9.342799187E-1,2.142572403E-1,-2.327096462E-1
2.121378416E1,7.879403234E-1,1.432132721E-2,-5.171189308E-1
2.123045082E1,7.228653431E-1,-3.554725647E-1,-5.950784683E-1
2.124711749E1,7.099900246E-1,-5.933227539E-1,-6.270430088E-1
2.126378415E1,5.850999355E-1,-4.552650452E-1,-9.446908832E-1
2.128045082E1,3.137436807E-1,-1.766614914E-1,-1.094085932E0
2.129711749E1,1.987822056E-1,-1.245985031E-1,-1.012505770E0
2.131378415E1,1.381914318E-1,-1.754312515E-1,-7.317611575E-1
2.133045082E1,1.993739307E-1,-2.441711426E-1,-4.397752285E-1
2.134711748E1,2.906972766E-1,-1.946191788E-1,1.302537918E-1
2.136378415E1,4.023377895E-1,-1.659402847E-1,4.364075661E-1
2.138045082E1,7.807866335E-1,-1.345624924E-1,4.503840208E-1
2.139711748E1,1.021142125E0,-6.309032440E-2,2.681967020E-1
2.141378415E1,1.007512212E0,4.859352112E-2,3.120563030E-1
2.143045081E1,9.262513518E-1,7.983112335E-2,5.269320607E-1
2.144711748E1,9.262513518E-1,7.983112335E-2,5.269320607E-1
2.146378415E1,1.099996567E0,1.757612228E-1,3.048889041E-1
2.148045081E1,9.843553901E-1,3.361911774E-1,2.519683242E-1
2.149711748E1,7.897808552E-1,4.949216843E-1,6.692066789E-1
2.151378414E1,8.158479929E-1,5.730524063E-1,9.716458321E-1
2.153045081E1,9.601447582E-1,4.389514923E-1,8.482027054E-1
2.154711748E1,1.056776643E0,3.336753845E-1,2.870867848E-1
2.156378414E1,9.725362062E-1,2.782611847E-1,2.323795557E-1
2.158045081E1,6.706519127E-1,2.209463120E-1,8.501361609E-1
2.159711747E1,6.601247787E-1,1.099052429E-1,9.374476671E-1
2.161378414E1,5.197566748E-1,1.899013519E-1,3.096195459E-1
2.163045081E1,5.046997070E-1,9.171848297E-1,1.704341769E-1
2.164711747E1,7.478371859E-1,1.322999954E0,1.552739739E-1
2.166378414E1,9.736176729E-1,1.982740402E0,-5.238582492E-1
2.168045080E1,1.247314334E0,2.986178398E0,-1.006159782E0
2.169711747E1,1.536660194E0,3.410175323E0,-6.950123906E-1
2.171378414E1,1.889503360E0,3.002224922E0,-3.596247435E-1
2.173045080E1,1.871308208E0,2.150798798E0,-6.009423733E-1
2.174711747E1,1.050902605E0,8.130760193E-1,-1.158087492E0
2.176378413E1,4.794902205E-1,-6.007051468E-1,-1.282212257E0
2.178045080E1,-2.620705962E-2,-1.488929749E0,-1.117051005E0
2.179711747E1,-8.790186644E-1,-2.324779034E0,-8.713831902E-1
2.181378413E1,-1.545459986E0,-2.591128349E0,-7.423181534E-1
2.183045080E1,-1.994840741E0,-2.423471928E0,-9.572873116E-1
2.184711746E1,-1.200462341E0,-1.752196312E0,-1.399642706E0
2.186378413E1,-2.862655818E-1,-1.366662979E-1,-1.760267973E0
2.188045080E1,6.651586294E-2,1.225468636E0,-1.747805119E0
2.189711746E1,4.329482019E-1,2.610590935E0,-1.627829552E0
2.191378413E1,7.776741385E-1,2.866266251E0,-1.297488451E0
2.193045079E1,6.832730770E-1,1.868484497E0,-1.445846558E0
2.194711746E1,4.483676851E-1,8.587656021E-1,-1.758752823E0
2.196378413E1,2.479331195E-1,-6.251811981E-2,-1.743227720E0
2.198045079E1,-1.652911305E-2,-5.220661163E-1,-1.415259600E0
2.199711746E1,-1.883344352E-1,-1.131866455E0,-9.140894413E-1
2.201378412E1,-1.930678785E-1,-1.230897427E0,-7.860167027E-1
2.203045079E1,-5.067422390E-1,-7.832231522E-1,-1.203545570E0
2.204711746E1,-3.890081644E-1,-5.403480530E-1,-1.820585489E0
2.206378412E1,1.201476455E-1,-5.683317184E-1,-2.595116854E0
2.208045079E1,2.815712094E-1,-5.711278915E-1,-2.849249363E0
2.209711745E1,-8.366203308E-2,-3.566055298E-1,-2.484001875E0
2.211378412E1,-2.151974142E-1,-1.771926880E-1,-1.880835056E0
2.213045079E1,2.634109855E-1,-7.047653198E-3,-6.177847385E-1
2.214711745E1,1.912233829E-1,1.622858047E-1,3.450121880E-1
2.216378412E1,-7.951232195E-1,3.528013229E-1,8.189859390E-1
2.218045078E1,-6.417801380E-1,1.960468292E-2,6.856417656E-1
2.219711745E1,-3.604698777E-1,-3.487682343E-1,1.291551590E-1
2.221378412E1,-2.578917742E-1,-5.754432678E-1,-5.118441582E-1
2.223045078E1,1.587671041E-2,-8.724737167E-1,-1.378277063E0
2.224711745E1,1.717305183E-1,-8.961467743E-1,-1.113987684E0
2.226378411E1,3.019811511E-1,-6.122741699E-1,-4.200620651E-1
2.228045078E1,2.962378860E-1,-2.460594177E-1,-6.191420555E-2
2.229711745E1,3.631355762E-1,-7.499122620E-2,-1.802537441E-1
2.231378411E1,7.252656817E-1,4.331302643E-2,-3.698513508E-1
2.233045078E1,9.581201077E-1,7.218265533E-2,-2.506349087E-1
2.234711744E1,1.167760611E0,-1.576404572E-1,1.670579910E-1
2.236378411E1,1.168378115E0,-3.031883240E-1,4.728641510E-1
2.238045078E1,6.240153909E-1,-1.301631927E-1,5.781366825E-1
2.239711744E1,1.554445624E-1,-1.994895935E-2,6.758058071E-1
2.241378411E1,3.914361596E-1,-2.289953232E-1,9.422869682E-1
2.243045077E1,6.276140213E-1,-5.016183853E-1,1.134383440E0
2.244711744E1,8.861252666E-1,-2.912797928E-1,1.606183052E0
2.246378411E1,1.117107868E0,1.107968330E0,1.199563026E0
2.248045077E1,5.273143649E-1,3.400043488E0,-3.589835167E-1
2.249711744E1,1.819628477E-2,4.226826668E0,-1.734919429E0
2.251378410E1,-2.954403460E-1,4.286414146E0,-2.313291550E0
2.253045077E1,-2.004750967E-1,3.752112389E0,-1.582726598E0
2.254711744E1,-3.595149815E-1,1.506625175E0,-4.919605255E-1
2.256378410E1,-5.818076134E-1,-5.602893829E-1,-4.239075184E-1
2.258045077E1,-6.306140423E-1,-1.397230148E0,-1.382170439E0
2.259711743E1,-1.068813682E0,-1.552302361E0,-1.861128807E0
2.261378410E1,-1.484163523E0,-1.854981899E0,-2.247712135E0
2.263045077E1,-1.178371906E0,-2.041037560E0,-2.603924990E0
2.264711743E1,-1.081553698E0,-2.002780914E0,-3.070581198E0
2.266378410E1,-1.551440716E0,-1.822512150E0,-3.214765310E0
2.268045076E1,-2.254656792E0,-1.216797829E0,-3.627240896E0
2.269711743E1,-2.511510611E0,-4.583320618E-1,-3.912507296E0
2.271378410E1,-1.729505062E0,3.160409927E-1,-3.346366882E0
2.273045076E1,-3.881606460E-1,5.601615906E-1,-2.139049292E0
2.274711743E1,1.281953931E0,1.006580353E0,1.319312572E0
2.276378409E1,9.528869390E-1,1.383157730E0,2.145156145E0
2.278045076E1,2.642302513E-1,1.256487846E0,1.083979607E0
2.279711743E1,6.991636753E-2,6.116237640E-1,-2.985811234E-1
2.281378409E1,3.516245484E-1,8.543777466E-2,-4.565443993E-1
2.283045076E1,5.960685611E-1,-2.972278595E-1,-3.567793369E-1
2.284711742E1,5.230012536E-1,-4.634141922E-1,-3.022036552E-1
2.286378409E1,1.933436394E-1,-6.396684647E-1,-4.513030052E-1
2.288045076E1,1.098861098E-1,-6.979036331E-1,-8.034608364E-1
2.289711742E1,1.017670333E-1,-7.191114426E-1,-8.256895542E-1
2.291378409E1,1.531866193E-1,-6.457462311E-1,-6.551547050E-1
2.293045075E1,3.377032876E-1,-3.275671005E-1,-5.704107285E-1
2.294711742E1,5.379092097E-1,-1.983289719E-1,-1.273127794E-1
2.296378409E1,9.898995161E-1,-3.147249222E-1,5.081306696E-1
2.298045075E1,1.270166636E0,-4.144334793E-1,6.470421553E-1
2.299711742E1,1.412783384E0,-5.372447968E-1,5.914614201E-1
2.301378408E1,1.393972516E0,-5.379981995E-1,5.543118715E-1
2.303045075E1,9.732913375E-1,-4.895849228E-1,6.733797789E-1
2.304711742E1,6.946707368E-1,-2.956619263E-1,7.980462313E-1
2.306378408E1,6.943730116E-1,-2.078313828E-1,7.835406065E-1
2.308045075E1,7.217411995E-1,-2.740316391E-1,6.458662748E-1
2.309711741E1,7.567239404E-1,-3.289747238E-1,3.388178349E-1
2.311378408E1,6.990159750E-1,-2.838821411E-1,1.666325331E-1
2.313045075E1,6.577659845E-1,-2.720098495E-1,2.956119776E-1
2.314711741E1,6.932125092E-1,-2.585391998E-1,5.103106499E-1
2.316378408E1,5.779779553E-1,-6.725788116E-2,5.137877464E-1
2.318045074E1,3.836175799E-1,1.319303513E-1,6.110333800E-1
2.319711741E1,2.660071254E-1,2.531976700E-1,1.276825428E0
2.321378408E1,2.584737241E-1,2.557325363E-1,2.039120197E0
2.323045074E1,7.167301178E-1,3.737115860E-1,1.971511602E0
2.324711741E1,1.142621160E0,6.479082108E-1,1.047414303E0
2.326378407E1,8.692102432E-1,1.817245483E0,2.538340688E-1
2.328045074E1,7.744675875E-1,2.516117096E0,1.056578994E0
2.329711741E1,8.525633812E-1,2.840275764E0,1.310275555E0
2.331378407E1,7.414954305E-1,3.628208160E0,-9.582269192E-2
2.333045074E1,8.302957416E-1,4.272847176E0,-9.246803522E-1
2.334711740E1,1.549552679E0,4.102681160E0,-4.459682703E-1
2.336378407E1,2.275440931E0,3.034328461E0,-3.478745222E-1
2.338045074E1,2.489514828E0,1.036921501E0,-1.871629715E0
2.339711740E1,1.524334311E0,-1.047868729E-1,-2.313955784E0
2.341378407E1,4.452406764E-1,-1.223867416E0,-1.339981794E0
2.343045073E1,-4.288735390E-1,-1.781178474E0,1.978759766E-1
2.344711740E1,-1.650215149E0,-1.704556465E0,1.563330650E0
2.346378407E1,-2.996952057E0,-5.801734924E-1,1.184173584E0
2.348045073E1,-2.494135380E0,1.199194908E0,-4.989633560E-1
2.349711740E1,-1.361824512E0,2.342394829E0,-1.750528812E0
2.351378406E1,-5.600860715E-1,3.893155098E0,-2.271424055E0
2.353045073E1,-2.302284241E-1,4.107858658E0,-2.456726789E0
2.354711740E1,4.800510406E-1,2.640545845E0,-3.888374090E0
2.356378406E1,3.060603142E-1,1.910816193E0,-3.920309782E0
2.358045073E1,5.228899717E-1,1.597811699E0,6.527371407E-1
2.359711739E1,1.621060610E0,1.193042755E0,7.865221024E0
2.361378406E1,-1.399642825E0,2.685384750E-1,1.017426491E0
2.363045073E1,-3.760895729E0,-3.485713005E-1,-3.431449413E0
2.364711739E1,-3.459373474E0,-6.472673416E-1,-5.516649723E0
2.366378406E1,-2.471388817E0,-8.911542892E-1,-4.969463348E0
2.368045072E1,-1.877272129E0,-1.068254471E0,-4.267213345E0
2.369711739E1,-1.268634677E0,-9.157981873E-1,-3.389595032E0
2.371378406E1,-1.493833065E-1,-4.395794868E-1,-1.879092216E0
2.373045072E1,8.147659302E-1,-5.760827065E-1,-9.741754532E-1
2.374711739E1,6.652891636E-1,-1.143007755E0,-3.931131363E-1
2.376378405E1,-6.865234375E-1,-1.290976048E0,-4.747600555E-1
2.378045072E1,-1.408961177E0,-1.336992741E0,-6.223726273E-1
2.379711739E1,-1.547219872E0,-1.443666935E0,-1.844100952E0
2.381378405E1,-1.070039392E0,-1.253702641E0,-1.816906929E0
2.383045072E1,-4.895479679E-1,-6.597695351E-1,-1.045121670E0
2.384711738E1,-1.605172157E-1,-3.436870575E-1,-1.122620583E0
2.386378405E1,6.081581116E-2,-5.118155479E-1,-1.003547192E0
2.388045072E1,2.361874580E-1,-1.062753201E0,-2.381281853E-1
2.389711738E1,2.470791340E-1,-1.737730026E0,8.075189590E-1
2.391378405E1,2.075748444E-1,-1.934625149E0,1.025408268E0
2.393045071E1,-5.478167534E-2,-1.851513147E0,3.298377991E-1
2.394711738E1,-3.226130009E-1,-1.638125896E0,-1.518583298E-1
2.396378405E1,-3.131566048E-1,-1.260520935E0,-4.438238144E-1
2.398045071E1,-6.329777241E-1,-6.637635231E-1,1.264003754E0
2.399711738E1,-1.197209120E0,5.924208164E0,4.681208611E0
2.401378404E1,1.143180132E0,9.145978928E0,5.210630894E0
2.403045071E1,3.960262775E0,3.731481075E0,-1.450522900E0
2.404711738E1,2.461149216E0,9.152207375E-1,-1.686866283E0
2.406378404E1,-8.866727352E-1,-3.928585052E-1,5.184841156E-2
2.408045071E1,-7.885847092E-1,-2.665185928E-2,-3.710489273E-1
2.409711737E1,2.945337296E-1,9.865760803E-1,-2.762878895E0
2.411378404E1,1.700122356E-1,2.374236107E0,-3.244165421E0
2.413045071E1,-6.432899237E-1,3.518484116E0,-2.239090443E0
2.414711737E1,-1.257439017E0,3.586232185E0,-1.937489271E0
2.416378404E1,-1.342497230E0,2.454551697E0,-1.915363312E0
2.418045070E1,-6.863394976E-1,1.042893410E0,-2.036159992E0
2.419711737E1,2.680386305E-1,-1.885967255E-1,-1.738414526E0
2.421378404E1,4.235252142E-1,-5.818529129E-1,-1.504009724E0
2.423045070E1,-1.843935251E-1,-6.337680817E-1,-1.568843603E0
2.424711737E1,-8.117134571E-1,-3.328208923E-1,-1.403776169E0
2.426378403E1,-1.185008049E0,6.838035583E-2,-5.069570541E-1
2.428045070E1,-1.394910574E0,3.421316147E-1,-8.077907562E-2
2.429711737E1,-1.280918002E0,3.807229996E-1,-5.302689075E-1
2.431378403E1,-6.177608967E-1,-5.306625366E-2,-1.301112890E0
2.433045070E1,-1.505261660E-1,-6.213026047E-1,-1.500257492E0
2.434711736E1,1.393544674E-1,-9.542999268E-1,-1.673492432E0
2.436378403E1,1.797854900E-1,-1.037407875E0,-1.551514149E0
2.438045070E1,7.067263126E-2,-9.323768616E-1,-1.094783068E0
2.439711736E1,1.529072523E-1,-8.687343597E-1,-6.811430454E-1
2.441378403E1,2.775049806E-1,-7.144184113E-1,-2.072379589E-1
2.443045069E1,3.401570916E-1,-5.555772781E-1,-8.955931664E-2
2.444711736E1,4.712432027E-1,-6.503000259E-1,-9.511137009E-2
2.446378403E1,7.204595804E-1,-8.757944107E-1,-3.157541752E-1
2.448045069E1,1.001627207E0,-1.102070808E0,-6.895325184E-1
2.449711736E1,1.028761625E0,-1.121421814E0,-5.498471260E-1
2.451378402E1,5.904483795E-1,-1.022862434E0,-7.984876633E-2
2.453045069E1,4.857344031E-1,-9.629707336E-1,1.570708752E-1
2.454711736E1,6.446857452E-1,-7.728977203E-1,-2.996134758E-2
2.456378402E1,6.943116188E-1,-6.687631607E-1,-3.009579182E-1
2.458045069E1,5.231651664E-1,-6.496410370E-1,-2.366733551E-2
2.459711735E1,4.253198504E-1,-5.414266586E-1,4.473316669E-1
2.461378402E1,6.173621416E-1,-2.959680557E-1,8.878693581E-1
2.463045069E1,9.268174767E-1,-1.896848679E-1,6.777700186E-1
2.464711735E1,1.184713125E0,-5.039396286E-1,1.844087839E-1
2.466378402E1,1.248334289E0,-7.955083847E-1,3.419669867E-1
2.468045068E1,1.368295908E0,-7.375402451E-1,9.102500677E-1
2.469711735E1,1.554912329E0,-3.199844360E-1,9.036172628E-1
2.471378402E1,1.707311153E0,1.124382019E-2,4.906640053E-1
2.473045068E1,1.488118410E0,-1.262283325E-2,8.147112131E-1
2.474711735E1,1.436229229E0,3.571834564E-1,1.542272568E0
2.476378401E1,1.216865540E0,1.082611084E0,1.343973160E0
2.478045068E1,1.178083539E0,2.140336037E0,1.433721781E-1
2.479711735E1,1.146448970E0,2.782113075E0,-7.564337254E-1
2.481378401E1,1.110279202E0,2.884356499E0,-6.661764383E-1
2.483045068E1,1.158521295E0,2.959358215E0,2.923750877E-1
2.484711734E1,1.079150677E0,3.129056931E0,8.405296803E-1
2.486378401E1,8.727983236E-1,3.575083733E0,1.451632977E-1
2.488045068E1,2.523641288E-1,3.913629532E0,-9.500321150E-1
2.489711734E1,-1.432249188E0,3.837874413E0,-7.402620316E-1
2.491378401E1,-2.497408152E0,2.899997711E0,1.589703560E-1
2.493045067E1,-2.960061073E0,1.270805359E0,8.235989809E-1
2.494711734E1,-2.750550747E0,3.426799774E-1,8.181076050E-1
2.496378401E1,-2.750550747E0,3.426799774E-1,8.181076050E-1
2.496378401E1,-1.304342151E0,-1.233291626E-1,1.009846568E0
2.499711734E1,-8.340528011E-1,7.640991211E-1,3.616476297E0
2.501378400E1,-1.122281790E0,8.067817688E-1,3.605146646E0
2.503045067E1,-7.773900032E-1,6.210641861E-1,1.208955526E0
2.504711734E1,-6.535507441E-1,4.812374115E-1,-3.322587013E-1
2.506378400E1,-7.867150307E-1,3.769340515E-1,-9.928789139E-1
2.508045067E1,-7.730890512E-1,4.388275146E-1,-7.768194675E-1
2.509711733E1,5.355083942E-2,3.464174271E-1,-1.728618145E-1
2.511378400E1,5.702109337E-1,1.221446991E-1,-5.575323105E-1
2.513045067E1,7.211205959E-1,-6.118144989E-1,-1.651394129E0
2.514711733E1,2.793529034E-1,-9.307765961E-1,-1.821964025E0
2.516378400E1,1.374173164E-2,-1.153123856E0,-8.397665024E-1
2.518045066E1,-5.769962072E-2,-1.327976227E0,-6.060190201E-1
2.519711733E1,1.268519163E-1,-1.938498020E0,-1.242343187E0
2.521378400E1,4.619791508E-1,-2.044129372E0,-9.851922989E-1
2.523045066E1,6.237655878E-1,-1.329290390E0,1.330185413E0
2.524711733E1,-2.432641983E-1,-4.936857224E-1,2.457659245E0
2.526378399E1,-2.183686733E0,1.013422012E-1,2.818405151E0
2.528045066E1,-3.751086235E0,-2.073106766E-1,-1.432819843E0
2.529711733E1,-3.493036270E0,-9.430475235E-1,-3.242512703E0
2.531378399E1,-3.493036270E0,-9.430475235E-1,-3.242512703E0
2.533045066E1,-1.788040519E0,-2.392382622E0,-4.188590050E0
2.534711732E1,-1.419833422E0,-2.745166779E0,-4.085908890E0
2.536378399E1,-1.287476540E0,-2.605720043E0,-3.351570845E0
2.538045066E1,-6.982553005E-1,-2.016420841E0,-2.084016085E0
2.539711732E1,2.683184147E-1,-1.613462448E0,-9.417676926E-1
2.541378399E1,1.673885345E0,-1.878617287E0,5.574054718E-1
2.543045065E1,1.747570515E0,-2.639733791E0,6.704201698E-1
2.544711732E1,5.136418343E-1,-2.963346958E0,-2.038922310E-1
2.546378399E1,-2.280378342E-2,-2.689929008E0,-6.613998413E-1
2.548045065E1,4.907526970E-1,-2.289101124E0,-5.883178711E-1
2.549711732E1,1.085730553E0,-2.141026497E0,-1.067843437E-1
2.551378398E1,1.341426373E0,-1.755109310E0,4.548921585E-1
2.553045065E1,1.256400824E0,-1.191860199E0,1.933093071E-1
2.554711732E1,8.407032490E-1,-2.305145264E-1,-1.787865877E0
2.556378398E1,-2.620327473E-1,5.014781952E-1,-1.698064804E-1
2.558045065E1,-2.742785931E0,4.172788143E0,4.574999809E0
2.559711731E1,-1.409185171E0,6.824932575E0,6.945191383E0
2.561378398E1,1.769812107E0,4.747997761E0,-1.535505533E0
2.563045065E1,5.435516834E-1,3.519338608E0,-2.471087933E0
2.564711731E1,-3.779063225E-1,2.333739281E0,1.944184303E-1
2.566378398E1,-3.363997936E-1,2.113554001E0,-5.886592865E-1
2.568045064E1,-4.792275429E-1,2.560114861E0,-1.635333538E0
2.569711731E1,-7.238887548E-1,2.776868820E0,-6.948823929E-1
2.571378398E1,-1.712415218E-1,2.351140976E0,1.018680096E0
2.573045064E1,-3.285622597E-2,1.311285973E0,1.059588909E0
2.574711731E1,-1.537010670E-1,-4.093790054E-1,-1.983003616E-1
2.576378397E1,-1.400530338E-1,-1.561166286E0,-1.246833801E0
2.578045064E1,-2.438662052E-1,-2.210336208E0,-1.923071861E0
2.579711731E1,-6.263775826E-1,-1.724308968E0,-1.510943651E0
2.581378397E1,-5.020649433E-1,-9.500646591E-1,-1.166452646E0
2.583045064E1,-3.391802311E-1,-3.905277252E-1,-7.403366566E-1
2.584711730E1,-5.914943218E-1,-4.697370529E-1,-4.774045944E-1
2.586378397E1,-1.085108757E0,-8.566408157E-1,-1.874897480E-1
2.588045064E1,-1.202170968E0,-9.197130203E-1,-4.626119137E-1
2.589711730E1,-1.028449535E0,-7.707223892E-1,-9.173896313E-1
2.591378397E1,-5.658544302E-1,-8.566303253E-1,-1.057769299E0
2.593045063E1,2.739107609E-2,-1.171314240E0,-9.587972164E-1
2.594711730E1,9.242308140E-2,-1.243917465E0,-9.998531342E-1
2.596378397E1,1.819331646E-1,-1.126037598E0,-6.478133202E-1
2.598045063E1,3.127167225E-1,-1.014248848E0,-1.850829124E-1
2.599711730E1,4.820122719E-1,-9.701719284E-1,-1.453933716E-1
2.601378396E1,5.229307413E-1,-9.168281555E-1,-2.747159004E-1
2.603045063E1,6.342525482E-1,-6.433601379E-1,-5.130529404E-1
2.604711730E1,7.486552000E-1,-8.055725098E-1,-2.541644573E-1
2.606378396E1,6.951619387E-1,-1.044879913E0,7.094144821E-3
2.608045063E1,5.099101067E-1,-1.039619446E0,-2.681040764E-2
2.609711729E1,2.141872644E-1,-8.593864441E-1,2.052025795E-1
2.611378396E1,1.687048674E-1,-6.620101929E-1,4.254205227E-1
2.613045063E1,3.773725033E-1,-2.139120102E-1,1.010639668E-1
2.614711729E1,3.336067200E-1,2.984905243E-2,-1.098012924E-2
2.616378396E1,1.831933260E-1,1.021976471E-1,2.312178612E-1
2.618045062E1,1.240653992E-1,3.091621399E-2,3.197482824E-1
2.619711729E1,4.519710541E-1,-2.992963791E-1,4.819570780E-1
2.621378396E1,6.602478027E-1,-6.142606735E-1,8.630977869E-1
2.623045062E1,6.474237442E-1,-7.033681870E-1,1.002312064E0
2.624711729E1,7.332495451E-1,-8.217353821E-1,1.381524920E0
2.626378395E1,1.112513661E0,-8.867683411E-1,1.406814694E0
2.628045062E1,1.392922401E0,-6.598463058E-1,7.861080170E-1
2.629711729E1,1.435922146E0,-5.107431412E-1,5.478374958E-1
2.631378395E1,1.501303911E0,-2.213640213E-1,4.830099344E-1
2.633045062E1,1.540784001E0,3.091745377E-1,4.978387356E-1
2.634711728E1,1.471412897E0,1.244759560E0,3.719041348E-1
2.636378395E1,1.306286454E0,1.864141464E0,-1.112881899E-1
2.638045062E1,9.861784577E-1,2.726328850E0,-3.481053114E-1
2.639711728E1,8.078453541E-1,3.318547249E0,-1.054253578E-1
2.641378395E1,6.968595982E-1,4.222545624E0,3.670549393E-2
2.643045061E1,4.751542211E-1,4.968982697E0,-9.006381035E-2
2.644711728E1,-2.453822792E-1,5.455808640E0,-1.533863544E-1
2.646378395E1,-1.039787531E0,5.011187553E0,1.862356663E-1
2.648045061E1,-2.101516724E0,3.296448708E0,1.248374820E0
2.649711728E1,-2.253157139E0,1.997110367E0,1.299239635E0
2.651378394E1,-1.514372349E0,5.927209854E-1,7.372065783E-1
2.653045061E1,-8.423398733E-1,-3.842601776E-1,8.388025761E-1
2.654711728E1,-5.805820227E-2,-1.289009094E0,1.365129232E0
2.656378394E1,1.416282654E-1,-1.242853165E0,1.790607929E0
2.658045061E1,-5.574513674E-1,-4.836530685E-1,2.409864664E0
2.659711727E1,-1.071146488E0,-7.118320465E-2,2.201646328E0
2.661378394E1,-7.492003441E-1,3.255558014E-2,1.961312294E-1
2.663045061E1,-7.173746824E-1,1.068706512E-1,-1.339669824E0
2.664711727E1,-5.682084560E-1,1.059503555E-1,-1.668543458E0
2.666378394E1,-2.156023979E-1,9.391880035E-2,-8.097686768E-1
2.668045060E1,7.962481380E-1,2.775793076E-1,1.220017672E0
2.669711727E1,1.214572549E0,3.903341293E-1,2.377654076E0
2.671378394E1,8.544221520E-1,5.067253113E-2,1.137377739E0
2.673045060E1,1.866986156E-1,-4.124183655E-1,-1.423525810E-1
2.674711727E1,-1.191453338E0,-5.905408859E-1,-1.649240255E0
2.676378393E1,-1.159768343E0,-1.146979809E0,-3.178298235E0
2.678045060E1,-1.017121077E-1,-1.354799747E0,-3.025165081E0
2.679711727E1,3.830049038E-1,4.197826385E-1,7.132725716E-1
2.681378393E1,-4.254559278E-1,1.136284828E0,2.520672321E0
2.683045060E1,-1.489679694E0,-1.550407410E-1,1.778667450E0
2.684711726E1,-1.548535585E0,-1.253839016E0,-1.552000046E-1
2.686378393E1,-1.481102467E0,-1.832148552E0,-2.205987453E0
2.688045060E1,-1.417220473E0,-1.687685966E0,-2.220335007E0
2.689711726E1,-1.691914797E0,-1.362978458E0,-6.494030952E-1
2.691378393E1,-1.799084663E0,-1.777719975E0,-2.256491661E0
2.693045059E1,-1.550079703E0,-2.501940250E0,-3.080740452E0
2.694711726E1,-1.313760877E0,-2.457738876E0,-2.786842585E0
2.696378393E1,-1.276222467E0,-2.068656921E0,-1.326386929E0
2.698045059E1,-1.285933971E0,-1.948679924E0,-7.138504982E-1
2.699711726E1,-1.144764185E0,-1.984643459E0,-1.022143364E0
2.701378392E1,-8.398723602E-1,-1.940487862E0,-1.135454178E0
2.703045059E1,-1.378152370E-1,-1.743105412E0,-9.573469162E-1
2.704711726E1,4.889309406E-1,-1.715207577E0,-6.638407707E-1
2.706378392E1,7.906804085E-1,-1.768082142E0,-2.659955025E-1
2.708045059E1,7.963945866E-1,-1.661778927E0,-7.069015503E-2
2.709711725E1,1.149207354E0,-1.629899979E0,9.230866432E-1
2.711378392E1,1.420475006E0,-1.585311413E0,1.041411877E0
2.713045059E1,1.328380823E0,-1.381020069E0,-2.987246513E-1
2.714711725E1,1.062099934E0,-1.314217567E0,-1.666522503E0
2.716378392E1,7.547140121E-1,-1.001996040E0,-1.698150635E-1
2.718045058E1,-3.869230747E-1,9.851560593E-1,4.126959324E0
2.719711725E1,-7.543084621E-1,5.446495056E0,7.960951805E0
2.721378392E1,2.086799860E0,5.144566059E0,-6.623854637E-1
2.723045058E1,9.436678886E-1,3.978223801E0,-4.083406448E0
2.724711725E1,5.633063316E-1,3.976795197E0,1.154773712E0
2.726378391E1,5.611991882E-2,3.358381271E0,2.466044426E0
2.728045058E1,-5.449540615E-1,2.515350342E0,-3.034255266E0
2.729711725E1,-7.172731161E-1,2.229782104E0,-1.902720690E0
2.731378391E1,-9.336258173E-1,2.230012894E0,9.033055305E-1
2.733045058E1,-7.496281862E-1,1.613303185E0,5.524206161E-1
2.734711724E1,-1.946778297E-1,-1.232833862E-1,-1.071505785E0
2.736378391E1,6.792330742E-2,-1.488949776E0,-1.896222353E0
2.738045058E1,6.792330742E-2,-1.488949776E0,-1.896222353E0
2.739711724E1,-9.851598740E-2,-2.310223103E0,-1.505723715E0
2.741378391E1,-9.583574533E-1,-9.292416573E-1,-1.268847227E0
2.743045057E1,-1.206117630E0,-2.977600098E-1,-1.027196646E0
2.744711724E1,-1.014119625E0,-1.238899231E-1,-6.449241638E-1
2.746378391E1,-8.878282309E-1,-1.021547318E-1,-5.728850365E-1
2.748045057E1,-8.624727726E-1,-2.511978149E-1,-7.047488689E-1
2.749711724E1,-8.759831190E-1,-3.842763901E-1,-7.886679173E-1
2.751378390E1,-8.759831190E-1,-3.842763901E-1,-7.886679173E-1
2.753045057E1,3.315409422E-1,-1.143914700E0,-8.658256531E-1
2.754711724E1,2.889003754E-1,-9.527492523E-1,-9.645600319E-1
2.756378390E1,3.684055805E-2,-6.853303909E-1,-6.496138573E-1
2.758045057E1,-3.968763351E-2,-8.508481979E-1,8.614778519E-2
2.759711723E1,9.397435188E-2,-1.140108109E0,3.050546646E-1
2.761378390E1,4.396859407E-1,-1.202033043E0,-5.363464355E-2
2.763045057E1,7.041032314E-1,-1.084082603E0,-4.316999912E-1
2.764711723E1,7.041032314E-1,-1.084082603E0,-4.316999912E-1
2.764711723E1,7.005673647E-1,-8.626918793E-1,-7.536931038E-1
2.768045056E1,1.544339657E-1,-8.986778259E-1,-3.915967941E-1
2.769711723E1,1.659270525E-1,-8.263044357E-1,-2.211024761E-1
2.771378390E1,2.073061466E-2,-7.831764221E-1,-3.042078018E-2
2.773045056E1,-4.022324085E-2,-5.792808533E-1,4.568099976E-3
2.774711723E1,-3.629052639E-2,-2.694120407E-1,5.079889297E-2
2.776378389E1,9.655904770E-2,-2.216625214E-1,-3.399133682E-3
2.778045056E1,5.863347054E-1,-1.733694077E-1,2.474246025E-1
2.779711723E1,5.439673662E-1,4.631042480E-3,8.433804512E-1
2.781378389E1,3.515174389E-1,-8.180332184E-2,9.065067768E-1
2.783045056E1,5.012415648E-1,-3.858222961E-1,4.881699085E-1
2.784711722E1,6.120702028E-1,-4.703216553E-1,4.272410870E-1
2.786378389E1,7.098325491E-1,-3.766422272E-1,2.916805744E-1
2.788045056E1,5.441282988E-1,-2.414178848E-1,4.257993698E-1
2.789711722E1,5.918295383E-1,-1.460409164E-1,6.508491039E-1
2.791378389E1,6.339522600E-1,-1.874122620E-1,6.055953503E-1
2.793045055E1,8.451319933E-1,-1.039571762E-1,3.666356802E-1
2.794711722E1,1.274837852E0,2.222251892E-1,5.417703390E-1
2.796378389E1,1.779911160E0,7.488775253E-1,1.161590457E0
2.798045055E1,1.852325439E0,1.007407188E0,1.521132112E0
2.799711722E1,1.348503828E0,1.520976067E0,1.589532733E0
2.801378388E1,9.885355234E-1,1.995220184E0,1.267043829E0
2.803045055E1,1.102404714E0,2.897446632E0,7.521164417E-2
2.804711722E1,1.180872679E0,3.329796791E0,-2.899165154E-1
2.806378388E1,1.012849331E0,3.837631226E0,3.480279446E-1
2.808045055E1,7.409631014E-1,4.038326263E0,1.039272308E0
2.809711721E1,2.495912313E-1,4.303484917E0,1.074797153E0
2.811378388E1,-2.462354302E-1,4.219888687E0,1.085917950E-1
2.813045055E1,-1.115136147E0,3.365117073E0,-1.014883518E0
2.814711721E1,-1.246900320E0,2.406026840E0,-9.624290466E-1
2.816378388E1,-9.430019259E-1,9.500236511E-1,-2.238478661E-1
2.818045054E1,-7.007579803E-1,-2.684726715E-1,8.668062687E-1
2.819711721E1,-7.759989500E-1,-1.185119629E0,2.394618988E0
2.821378388E1,-1.237224817E0,-1.212233543E0,3.524406195E0
2.823045054E1,-1.424476504E0,-5.353822708E-1,2.896957397E0
2.824711721E1,-9.758324623E-1,-6.429195404E-2,1.327560663E0
2.826378387E1,-8.786439896E-3,6.352043152E-2,-4.322333336E-1
2.828045054E1,2.908448577E-1,-1.602344513E-1,-7.505500317E-1
2.829711721E1,1.296148300E-1,1.921005249E-1,-4.263968468E-1
2.831378387E1,-2.477769256E-1,7.431478500E-1,2.522945404E-3
2.833045054E1,-5.728363395E-1,5.847749710E-1,-7.700459957E-1
2.834711720E1,-5.929084420E-1,-3.563156128E-1,-2.036808729E0
2.836378387E1,-2.510707974E-1,-1.009855747E0,-2.372234583E0
2.838045054E1,1.178739071E-1,-1.118083000E0,-1.143435478E0
2.839711720E1,-2.310878038E-1,-9.314289093E-1,-1.066784859E0
2.841378387E1,-2.310878038E-1,-9.314289093E-1,-1.066784859E0
2.841378387E1,-4.502924681E-1,-8.388252258E-1,-1.715518236E0
2.844711720E1,-1.228629351E-1,-5.533881187E-1,1.094130039E0
2.846378387E1,-1.641058922E-2,-4.508380890E-1,2.542253494E0
2.848045053E1,-1.209247351E0,-6.985316277E-1,1.146691799E0
2.849711720E1,-1.992215514E0,-1.221192360E0,-3.380813599E-1
2.851378386E1,-2.467916250E0,-1.611504555E0,-1.160340786E0
2.853045053E1,-2.264246225E0,-1.846845627E0,-2.157695055E0
2.854711720E1,-1.570950508E0,-2.412094593E0,-3.648842335E0
2.856378386E1,-9.790471792E-1,-2.363045692E0,-3.933376312E0
2.858045053E1,-5.288827419E-1,-1.815314770E0,-2.734083652E0
2.859711719E1,-4.842543602E-1,-1.624055862E0,-1.492291927E0
2.861378386E1,-3.994710445E-1,-1.584314823E0,-3.760547638E-1
2.863045053E1,-2.043623924E-1,-1.671412468E0,1.636996269E-1
2.864711719E1,-9.851741791E-2,-1.639590263E0,5.511908531E-1
2.866378386E1,-4.577012062E-1,-1.510294914E0,5.613274574E-1
2.868045052E1,-8.140642643E-1,-1.306986332E0,6.707262993E-1
2.869711719E1,-5.466325283E-1,-1.286046982E0,8.457469940E-1
2.871378386E1,2.046165466E-1,-1.340752125E0,-7.907533646E-2
2.873045052E1,6.511664391E-1,-1.534836769E0,-7.893891335E-1
2.874711719E1,4.634842873E-1,-1.695713520E0,-5.487079620E-1
2.876378385E1,-1.476106644E-1,-1.648387432E0,-4.294919968E-1
2.878045052E1,-3.379733562E-1,-1.549141407E0,-1.190465927E0
2.879711719E1,-7.030189037E-1,-1.490853786E0,-2.065182924E0
2.881378385E1,-1.799360037E0,-7.052807808E-1,1.760959625E0
2.883045052E1,-1.823032498E0,2.661018848E0,1.210932541E1
2.884711718E1,1.001837254E0,4.651566505E0,3.599788666E0
2.886378385E1,1.188455582E0,3.409312248E0,-7.297811508E0
2.888045052E1,-1.882367134E-1,3.295025826E0,-4.747699738E0
2.889711718E1,-1.181595206E0,4.517490387E0,3.615168571E0
2.891378385E1,-1.046076894E0,4.037912369E0,1.893932819E0
2.893045051E1,-5.004247427E-1,2.937556267E0,1.767578125E-1
2.894711718E1,9.053802490E-2,2.555655479E0,2.317156792E-1
2.896378385E1,8.593329191E-1,2.519736290E0,-9.639737606E-1
2.898045051E1,9.419882298E-1,2.042620659E0,-1.732385635E0
2.899711718E1,5.851985216E-1,5.444869995E-1,-1.441282272E0
2.901378384E1,5.481576920E-1,-7.770614624E-1,-1.108182192E0
2.903045051E1,7.279912233E-1,-2.030874729E0,-1.046829462E0
2.904711718E1,7.584685087E-1,-2.077672958E0,-9.690124989E-1
2.906378384E1,1.160260439E-1,-1.193260193E0,-7.129724026E-1
2.908045051E1,-5.617601871E-1,-4.496154785E-1,-6.766817570E-1
2.909711717E1,-5.851815939E-1,-1.659994125E-1,-8.275012970E-1
2.911378384E1,-3.772870302E-1,-2.117624283E-1,-6.844277382E-1
2.913045051E1,2.593681812E-1,-4.842958450E-1,-9.587399960E-1
2.914711717E1,5.369030237E-1,-5.287580490E-1,-1.359140635E0
2.916378384E1,3.712644577E-1,-6.170253754E-1,-1.347601175E0
2.918045050E1,8.529174328E-2,-8.751363754E-1,-8.352499008E-1
2.919711717E1,-2.331192493E-1,-1.171957493E0,-3.887195587E-1
2.921378384E1,-1.487876177E-1,-1.206491947E0,-4.562916756E-1
2.923045050E1,1.419829130E-1,-9.630117416E-1,-5.351617336E-1
2.924711717E1,2.938657999E-1,-9.911489487E-1,-4.260640144E-1
2.926378383E1,3.306359053E-1,-1.129498482E0,-1.926643848E-1
2.928045050E1,3.223805428E-1,-1.234701157E0,-1.898181438E-1
2.929711717E1,3.890968561E-1,-1.307258606E0,-4.931542873E-1
2.931378383E1,5.129878521E-1,-1.051606178E0,-9.347212315E-1
2.933045050E1,4.606918097E-1,-8.830690384E-1,-8.282115459E-1
2.934711716E1,3.068485260E-1,-7.699241638E-1,9.887218475E-4
2.936378383E1,2.946640253E-1,-6.285791397E-1,7.716658115E-1
2.938045050E1,3.564673662E-1,-3.505773544E-1,7.658545971E-1
2.939711716E1,4.088692665E-1,-2.210493088E-1,1.696026325E-1
2.941378383E1,3.888827562E-1,-1.065664291E-1,-3.816167116E-1
2.943045049E1,4.134653807E-1,-5.349063873E-2,-3.736364841E-1
2.944711716E1,5.958684683E-1,-5.632400513E-2,4.078085423E-1
2.946378383E1,8.843580484E-1,-8.840179443E-2,6.773312092E-1
2.948045049E1,8.813191652E-1,-2.442121506E-1,9.010937214E-1
2.949711716E1,9.653800726E-1,-3.908615112E-1,7.704652548E-1
2.951378382E1,9.024180174E-1,-4.896287918E-1,2.622386217E-1
2.953045049E1,9.767025709E-1,-3.392210007E-1,1.440711021E-1
2.954711716E1,1.282831073E0,7.488918304E-2,3.392629623E-1
2.956378382E1,1.373060703E0,2.764244080E-1,3.785154819E-1
2.958045049E1,1.084835172E0,5.671815872E-1,2.335540056E-1
2.959711715E1,7.827287912E-1,8.353719711E-1,3.840428591E-1
2.961378382E1,1.051943302E0,8.433542252E-1,7.191323042E-1
2.963045049E1,1.271811962E0,7.105512619E-1,8.430963755E-1
2.964711715E1,1.250893116E0,8.666629791E-1,1.127472162E0
2.966378382E1,1.099161506E0,1.028676033E0,1.050242901E0
2.968045048E1,9.435528517E-1,1.665699005E0,8.505092859E-1
2.969711715E1,1.341108561E0,2.035152435E0,2.470372915E-1
2.971378382E1,1.644948125E0,2.701613426E0,4.160964489E-2
2.973045048E1,1.660048008E0,3.786559105E0,6.859145164E-1
2.974711715E1,1.264177084E0,5.255301476E0,1.018851280E0
2.976378381E1,5.954281092E-1,6.042468071E0,9.894788265E-2
2.978045048E1,-1.382238865E-1,6.137535095E0,-5.686717629E-1
2.979711715E1,-1.382238865E-1,6.137535095E0,-5.686717629E-1
2.981378381E1,-2.013488710E-1,2.768391609E0,6.950966120E-1
2.983045048E1,5.913335085E-2,1.433153152E-1,8.001825809E-1
2.984711714E1,-8.251863718E-2,-1.484961510E0,1.153801799E0
2.986378381E1,-7.205102444E-1,-2.772235394E0,1.261004686E0
2.988045048E1,-1.549346924E0,-2.793471336E0,8.156533241E-1
2.989711714E1,-3.080204964E0,-1.780474663E0,3.550851345E-2
2.991378381E1,-3.750162363E0,-9.403791428E-1,-3.431178331E-1
2.993045047E1,-1.093098044E0,-1.190131187E0,-7.552844882E-1
2.994711714E1,-8.053743839E-2,-1.709692001E0,-1.153899193E0
2.996378381E1,6.812214851E-4,-2.201480389E0,-1.466953635E0
2.998045047E1,-1.673262715E-1,-2.278001785E0,-1.236796498E0
2.999711714E1,-3.969851434E-1,-1.801965714E0,-5.829100609E-1
3.001378380E1,-3.773217797E-1,-1.199596405E0,-7.115244865E-2
3.003045047E1,1.238587499E-2,-6.653442383E-1,4.095904827E-1
3.004711714E1,4.177263081E-1,-7.367258072E-1,5.877687931E-1
3.006378380E1,1.261786461E0,-1.314712524E0,-2.316908836E-1
3.008045047E1,1.480579495E0,-1.628676414E0,-1.915484190E0
3.009711713E1,9.417061210E-1,-1.622435570E0,-3.545649052E0
3.011378380E1,6.242834330E-1,-1.667503357E0,-3.712725878E0
3.013045047E1,3.432815075E-1,-1.720918655E0,-3.136732101E0
3.014711713E1,-1.294830441E-2,-1.690195560E0,-2.232896566E0
3.016378380E1,-6.546024084E-1,-1.682481766E0,-6.121726036E-1
3.018045046E1,-1.071489811E0,-1.481228352E0,2.241511345E-1
3.019711713E1,-1.050624728E0,-1.079688549E0,3.285894394E-1
3.021378380E1,-6.816321611E-1,-7.653656006E-1,-1.554489136E-1
3.023045046E1,-2.511405349E-1,-3.677196503E-1,-7.819874287E-1
3.024711713E1,-1.207927465E-1,-1.018333435E-2,-1.157075644E0
3.026378379E1,6.155657768E-2,3.909254074E-1,-1.059566021E0
3.028045046E1,1.259592772E-1,6.292133331E-1,-4.314057827E-1
3.029711713E1,1.683101654E-1,5.996580124E-1,2.637825012E-1
3.031378379E1,1.631363630E-1,2.573680878E-1,4.909543991E-1
3.033045046E1,2.142834663E-2,-4.676055908E-2,3.569550514E-1
3.034711712E1,-3.048870564E-1,-3.449831009E-1,-1.514203548E-1
3.036378379E1,-4.537700415E-1,-4.399919510E-1,-6.931693554E-1
3.038045046E1,-4.193913937E-1,-5.227289200E-1,-1.248311281E0
3.039711712E1,-1.773124933E-1,-6.641378403E-1,-1.140380383E0
3.041378379E1,2.543368340E-1,-7.978029251E-1,-6.638960838E-1
3.043045045E1,4.509297609E-1,-8.260974884E-1,-2.057335377E-1
3.044711712E1,3.514472246E-1,-7.046976089E-1,9.495162964E-2
3.046378379E1,3.553310633E-1,-6.786203384E-1,1.482677460E-2
3.048045045E1,2.572342157E-1,-7.019052505E-1,-9.671878815E-2
3.049711712E1,2.288198471E-1,-8.972482681E-1,7.597446442E-3
3.051378378E1,3.552192450E-1,-1.056832790E0,2.933251858E-1
3.053045045E1,6.146769524E-1,-1.048161983E0,5.039236546E-1
3.054711712E1,6.895903349E-1,-8.322372437E-1,6.410567760E-1
3.056378378E1,5.753637552E-1,-6.240558624E-1,7.310063839E-1
3.058045045E1,4.475117922E-1,-5.071182251E-1,1.052349567E0
3.059711711E1,4.355013967E-1,-5.862388611E-1,1.231725454E0
3.061378378E1,8.205690980E-1,-6.717023849E-1,1.258785725E0
3.063045045E1,1.127331734E0,-6.433992386E-1,1.154413939E0
3.064711711E1,1.174384236E0,-2.837314606E-1,9.739677906E-1
3.066378378E1,1.081221342E0,-1.537599564E-1,6.901617050E-1
3.068045044E1,8.054979444E-1,-3.392667770E-1,3.772687912E-1
3.069711711E1,5.137172341E-1,-6.009492874E-1,3.439011574E-1
3.071378378E1,5.014287233E-1,-7.618970871E-1,1.820781231E-1
3.073045044E1,1.412330866E-1,-1.298446655E-1,9.897232056E-2
3.074711711E1,-3.506870866E-1,2.134230614E0,2.297117710E-1
3.076378377E1,-2.207715511E-1,3.773495674E0,6.328742504E-1
3.078045044E1,-4.599915445E-1,4.870347977E0,8.191013336E-1
3.079711711E1,-5.870643258E-1,4.531799316E0,3.781654835E-1
3.081378377E1,1.371836066E-1,2.390302658E0,-7.258963585E-1
3.083045044E1,1.110109448E0,-1.260013580E-1,-1.989650965E0
3.084711710E1,1.043895483E0,-1.083443642E0,-2.994105339E0
3.086378377E1,2.014616132E-1,-1.531386375E0,-3.405981302E0
3.088045044E1,-6.388107538E-1,-1.567582130E0,-2.952917337E0
3.089711710E1,-1.534529209E0,-1.345697880E0,-1.718562007E0
3.091378377E1,-1.536164999E0,-1.129279137E0,-1.434040308E0
3.093045043E1,-1.288356900E0,-4.840583801E-1,-2.229687691E0
3.094711710E1,-1.502393603E0,6.120395660E-2,-1.721903443E0
3.096378377E1,-1.172063947E0,1.977462769E-1,-1.041997671E0
3.098045043E1,-7.578951716E-1,-1.212501526E-2,-1.791780829E0
3.099711710E1,-4.672567844E-1,2.477903366E-1,-2.034920692E0
3.101378376E1,-8.774656057E-2,6.837682724E-1,-1.093045712E0
3.103045043E1,4.448068142E-1,1.359816551E0,2.853937149E-1
3.104711710E1,5.817012787E-1,1.533202171E0,5.177114010E-1
3.106378376E1,2.798523307E-1,9.942684174E-1,4.055314064E-1
3.108045043E1,2.474406958E-1,2.164916992E-1,5.403432846E-1
3.109711709E1,3.581905961E-1,-8.782062531E-1,3.432002068E-1
3.111378376E1,3.435238600E-1,-1.292353630E0,-2.483463287E-2
3.113045043E1,4.360121489E-1,-9.691762924E-1,-3.761487007E-1
3.114711709E1,4.496319294E-1,-3.421030045E-1,-3.073422909E-1
3.116378376E1,3.885247111E-1,5.424308777E-2,-3.777463436E-1
3.118045042E1,5.317999721E-1,3.784275055E-2,-3.748917580E-1
3.119711709E1,7.312901616E-1,-1.246576309E-1,-4.372634888E-1
3.121378376E1,8.330295086E-1,-1.765604019E-1,-5.634602308E-1
3.123045042E1,9.001867771E-1,2.470016479E-3,-6.731517315E-1
3.124711709E1,9.757853746E-1,6.244945526E-2,-5.446453094E-1
3.126378375E1,1.179139376E0,-8.451175690E-2,-1.290365458E-1
3.128045042E1,1.071611643E0,-1.415672302E-1,3.022769690E-1
3.129711709E1,6.744028330E-1,-2.243347168E-1,8.182106018E-1
3.131378375E1,8.418089747E-1,-2.650051117E-1,5.911680460E-1
3.133045042E1,9.801761508E-1,-1.417617798E-1,4.543488026E-1
3.134711708E1,1.012213349E0,1.520671844E-1,4.571000338E-1
3.136378375E1,9.858384132E-1,1.323738098E-1,6.041625738E-1
3.138045042E1,1.109991193E0,-1.694679260E-2,4.285928011E-1
3.139711708E1,1.072469115E0,-4.806041718E-2,1.586965322E-1
3.141378375E1,9.754485488E-1,-1.748485565E-1,2.875968218E-1
3.143045041E1,1.055517316E0,-3.596372604E-1,7.367092371E-1
3.144711708E1,1.470504284E0,-3.971118927E-1,7.341895103E-1
3.146378375E1,1.721010804E0,5.956745148E-2,1.209796667E-1
3.148045041E1,1.658009291E0,1.556644440E0,-1.190651655E-1
3.149711708E1,1.460157633E0,2.122117043E0,3.273837566E-1
3.151378374E1,1.644115686E0,2.486088753E0,-1.509360075E-1
3.153045041E1,1.552874565E0,3.108736992E0,-3.902925253E-1
3.154711708E1,9.297543764E-1,3.541520119E0,2.482813597E-1
3.156378374E1,3.785659671E-1,2.964622498E0,2.049542665E-1
3.158045041E1,2.291419804E-1,1.770187378E0,-1.035760522E0
3.159711707E1,2.031207383E-1,9.194507599E-1,-1.681645274E0
3.161378374E1,-6.377181411E-2,-2.036886215E-1,-1.614551544E0
3.163045041E1,-2.488216460E-1,-8.239755630E-1,-1.532022357E0
3.164711707E1,-5.474456549E-1,-1.503163338E0,-1.076566696E0
3.166378374E1,-7.128871083E-1,-1.793414116E0,-3.742814064E-1
3.168045040E1,-8.690011501E-1,-1.732195377E0,1.873853207E-1
3.169711707E1,-6.753200889E-1,-1.476330757E0,-6.849527359E-3
3.171378374E1,-1.661680639E-1,-6.620311737E-1,-7.147610188E-1
3.173045040E1,1.714854240E-1,1.785316467E-1,-1.246259212E0
3.174711707E1,3.530479074E-1,1.372780800E0,-2.328650713E0
3.176378373E1,3.994503617E-1,2.024284363E0,-2.544654846E0
3.178045040E1,5.381370187E-1,2.361122131E0,-1.513925076E0
3.179711707E1,7.756440043E-1,2.018166542E0,-5.119099617E-1
3.181378373E1,1.032522321E0,1.074843407E0,3.652238846E-2
3.183045040E1,7.600901127E-1,4.978179932E-1,-8.901379108E-1
3.184711706E1,4.924376607E-1,1.464853287E-1,-1.837908983E0
3.186378373E1,2.115755081E-1,-2.626485825E-1,-2.348220825E0
3.188045040E1,-4.220163822E-2,-4.547805786E-1,-2.172062159E0
3.189711706E1,-6.729544997E-1,-5.051250458E-1,-2.189969301E0
3.191378373E1,-7.929160595E-1,-6.425752640E-1,-2.287667274E0
3.193045039E1,-6.601408720E-1,-8.312511444E-1,-2.028827906E0
3.194711706E1,-6.080639958E-1,-8.261070251E-1,-1.711416483E0
3.196378373E1,-3.742907047E-1,-7.365331650E-1,-1.387735128E0
3.198045039E1,-3.132374287E-1,-5.660753250E-1,-1.336277485E0
3.199711706E1,-5.588263273E-1,-3.893823624E-1,-1.549992323E0
3.201378372E1,-5.492468476E-1,-5.038452148E-1,-1.513517141E0
3.203045039E1,-3.716368079E-1,-6.307153702E-1,-9.755089283E-1
3.204711706E1,-1.847651005E-1,-4.286136627E-1,-1.225214005E-1
3.206378372E1,2.460849285E-1,3.347492218E-2,9.721879959E-1
3.208045039E1,4.246919155E-1,3.478469849E-1,1.322385550E0
3.209711705E1,6.201788187E-1,6.317148209E-1,1.194479227E0
3.211378372E1,8.841840625E-1,8.803949356E-1,1.239260912E0
3.213045039E1,1.104557753E0,8.828372955E-1,1.194622755E0
3.214711705E1,8.274987340E-1,6.631889343E-1,1.214761734E-1
3.216378372E1,4.451731443E-1,9.255313873E-2,-1.093236923E0
3.218045038E1,8.403378725E-2,-3.146009445E-1,-8.079452515E-1
3.219711705E1,-1.502451301E-1,-6.458740234E-1,-3.488695621E-1
3.221378372E1,1.627364755E-1,-5.360431671E-1,-2.289719582E-1
3.223045038E1,2.268819213E-1,-2.239418030E-2,-2.005219460E-2
3.224711705E1,-6.704330444E-4,2.826032639E-1,-2.485656738E-1
3.226378371E1,7.594132423E-2,1.732969284E-1,-1.178698063E0
3.228045038E1,-2.981837392E-1,4.848928452E-1,-2.700086117E0
3.229711705E1,-1.244336009E0,1.632776260E0,-3.739881039E0
3.231378371E1,-8.801611662E-1,2.144880295E0,-3.321575880E0
3.233045038E1,-5.721900463E-1,2.739258766E0,-2.065482616E0
3.234711704E1,-1.050022602E0,3.482063293E0,2.638033867E0
3.236378371E1,-1.279170513E0,2.768408775E0,3.292581320E0
3.238045038E1,-2.592099905E-1,9.793500900E-1,-1.915062189E0
3.239711704E1,-4.238575697E-2,3.146362305E-1,-4.567093849E0
3.241378371E1,-6.292908192E-1,-3.380756378E-1,-4.474252701E0
3.243045037E1,-1.040089846E0,-9.219398499E-1,-3.083819389E0
3.244711704E1,-1.070819736E0,-1.323559761E0,-3.424508572E-1
3.246378371E1,7.679343224E-2,-1.299090385E0,1.399411678E0
3.248045037E1,7.679343224E-2,-1.299090385E0,1.399411678E0
3.249711704E1,3.790209293E-1,-2.775077820E-1,-1.449401021E0
3.251378370E1,1.333173513E-1,2.552919388E-1,-1.604934573E0
3.253045037E1,9.354106188E-1,3.761081696E-1,-3.250632286E-1
3.254711704E1,1.628283501E0,5.235214233E-1,6.984226704E-1
3.256378370E1,1.230689645E0,7.348375320E-1,-1.103250980E-1
3.258045037E1,8.206897974E-1,1.076870918E0,-9.274406433E-1
3.259711703E1,5.504509211E-1,9.505720139E-1,-8.115651608E-1
3.261378370E1,5.352878571E-1,4.303226471E-1,-3.685157299E-1
3.263045037E1,7.086538076E-1,4.578304291E-2,-3.310077190E-1
3.264711703E1,6.532624364E-1,-3.411750793E-1,-6.054719687E-1
3.266378370E1,3.811559081E-1,-4.999294281E-1,-8.526953459E-1
3.268045036E1,1.688002348E-1,-5.688323975E-1,-1.026583791E0
3.269711703E1,-1.268059015E-2,-4.492826462E-1,-1.118461132E0
3.271378370E1,-1.995814443E-1,-2.451791763E-1,-9.937288761E-1
3.273045036E1,7.829821110E-2,-1.155443192E-1,-6.794985533E-1
3.274711703E1,5.076130629E-1,-7.405185699E-2,-1.312235594E-1
3.276378369E1,6.052485704E-1,-1.031808853E-1,4.680660963E-1
3.278045036E1,8.001723289E-1,-9.863376617E-2,7.496068478E-1
3.279711703E1,8.859883547E-1,-5.055713654E-2,4.816732407E-1
3.281378369E1,7.675493360E-1,6.256103516E-4,1.965547800E-1
3.283045036E1,7.675493360E-1,6.256103516E-4,1.965547800E-1
3.284711702E1,6.715100408E-1,-9.284687042E-2,6.668026447E-1
3.286378369E1,4.371387959E-1,-6.795597076E-2,5.599694252E-1
3.288045036E1,2.295680642E-1,-1.489982605E-1,4.249775410E-1
3.289711702E1,1.117981076E-1,-2.994499207E-1,4.163168669E-1
3.291378369E1,1.571718454E-1,-2.321929932E-1,4.107587337E-1
3.293045035E1,2.193339467E-1,-1.819438934E-1,7.680548429E-1
3.294711702E1,4.479710460E-1,-1.452045441E-1,9.244744778E-1
3.296378369E1,7.733999491E-1,3.218364716E-2,6.186217070E-1
3.298045035E1,7.895418406E-1,1.017007828E-1,1.718689799E-1
3.299711702E1,7.512180209E-1,3.150968552E-1,-2.262740135E-1
3.301378368E1,7.435461879E-1,5.467453003E-1,9.504914284E-3
3.303045035E1,5.887936950E-1,9.287405014E-1,2.239136696E-1
3.304711702E1,5.223070383E-1,1.140220642E0,-1.883103251E-1
3.306378368E1,3.838223517E-1,1.443819046E0,-5.712025166E-1
3.308045035E1,5.669521093E-1,1.841252327E0,-2.437834740E-1
3.309711701E1,5.612058640E-1,2.813545227E0,2.843651772E-1
3.311378368E1,3.537151515E-1,3.393050194E0,3.541285396E-1
3.313045035E1,3.787484169E-1,3.880915642E0,7.932431102E-1
3.314711701E1,6.638797522E-1,4.425621033E0,1.404963493E0
3.316378368E1,6.769598722E-1,4.906538010E0,1.417505980E0
3.318045034E1,3.189738393E-1,4.855637550E0,4.344084263E-1
3.319711701E1,5.983352661E-3,4.027666092E0,-9.668003917E-1
3.321378368E1,5.041581392E-2,3.246024132E0,-1.483638048E0
3.323045034E1,2.395974100E-1,2.011837006E0,-1.054914355E0
3.324711701E1,-2.053459883E-1,9.427642822E-1,-3.093842268E-1
3.326378367E1,-1.476455569E0,-3.743457794E-2,9.370192289E-1
3.328045034E1,-2.625912428E0,-1.969919205E-1,1.803561211E0
3.329711701E1,-3.070559740E0,1.926603317E-1,1.595672131E0
3.331378367E1,-1.471614361E0,3.066673279E-1,-3.671336174E-1
3.333045034E1,-7.995043397E-1,1.108665466E-1,-1.228758097E0
3.334711700E1,-8.717733622E-1,-2.944803238E-1,-1.282446146E0
3.336378367E1,-1.008609414E0,-3.096866608E-1,-1.250822783E0
3.338045034E1,-9.917262793E-1,-4.129447937E-1,-1.321086645E0
3.339711700E1,-9.252381325E-1,-8.072767258E-1,-1.071191311E0
3.341378367E1,-1.091411114E0,-1.185448647E0,-1.007754087E0
3.343045033E1,-1.234295368E0,-1.496894836E0,-1.201915264E0
3.344711700E1,-7.716885805E-1,-2.003633499E0,-1.900771856E0
3.346378367E1,-4.657510519E-1,-2.199897289E0,-2.641903639E0
3.348045033E1,5.847287178E-2,-2.383436680E0,-3.199528933E0
3.349711700E1,3.967581391E-1,-2.483309269E0,-3.190396070E0
3.351378366E1,9.719679952E-1,-2.347203255E0,-2.831510544E0
3.353045033E1,1.279081345E0,-2.164505959E0,-2.342530727E0
3.354711700E1,1.457807899E0,-1.903089523E0,-1.417140007E0
3.356378366E1,9.109331369E-1,-1.242255211E0,-9.262361526E-1
3.358045033E1,-6.737909317E-1,-4.179806709E-1,-6.353240013E-1
3.359711699E1,-1.194520116E0,-4.625525475E-1,-8.467268944E-1
3.361378366E1,-1.364886880E0,-6.615619659E-1,-7.166848183E-1
