Time (s),Acceleration x (m/s^2),Acceleration y (m/s^2),Acceleration z (m/s^2),Absolute acceleration (m/s^2)
0.027235943,-3.0500300712406188,4.481106899007981,6.968692709815337,8.850824989247519
0.04724678432163265,-2.3894472054851916,3.7073719140565755,8.355162382757273,9.417477445495566
0.06725762564326532,-2.462953391149939,3.4573056153249144,9.180720469218228,10.14267095354001
0.08726846696489797,-2.427693351742199,3.376316618843454,10.090711272877998,10.88875768785827
0.10727930828653062,-2.646213156199884,3.48351391810366,9.78989444953995,10.742576331041118
0.12729014960816326,-2.6037119028561695,3.5424913950964982,9.409972134464835,10.370693821690898
0.14730099092979593,-2.635214012967287,3.6615364287434278,9.025179272776013,10.102556629171277
0.1673118322514286,-2.601050017895757,3.5631864027864197,9.010139797368476,10.020800162822935
0.18732267357306126,-2.507832723650916,3.6687975548898795,8.69831674840363,9.77756514300616
0.20733351489469393,-2.138833434645988,3.5630541347600992,8.678330366688469,9.612492072842446
0.22734435621632654,-2.058549297049422,3.48159035278992,8.699826970057112,9.603554556562294
0.2473551975379592,-2.1555461692781552,3.347667927469408,9.099450374377087,9.92318521969332
0.26736603885959187,-2.329178336148304,3.504093382198066,9.173223952260148,10.100632657164358
0.28737688018122454,-2.2198230077524546,3.484536315472413,9.370810640794431,10.233084121186723
0.30738772150285715,-2.1447244664713887,3.55804331957036,9.176634410169886,10.080942049496002
0.3273985628244898,-2.075313925394604,3.5422735883347207,8.926776337939483,9.818513109088096
0.3474094041461225,-2.1893547080739704,3.529574912716205,8.818526357985007,9.754128889300368
0.36742024546775515,-2.0889504151152876,3.4312651305463278,8.794019537119864,9.661846808108509
0.3874310867893878,-2.0664695048970803,3.411664527168529,8.719153038243777,9.594185300974347
0.4074419281110204,-2.105150592682885,3.416018279560691,8.74518876298503,9.616264929653168
0.4274527694326531,-2.2442823686694062,3.42497532141574,8.778334027557287,9.691551896154206
0.44746361075428576,-2.2800416529779652,3.427961340713465,9.023145015502749,9.913055420665634
0.4674744520759184,-2.229048426155983,3.41695169220667,9.113542951445977,9.990021593197634
0.4874852933975511,-2.0832619574554845,3.435285116462445,9.120672621412686,9.961447274568947
0.5074961347191838,-1.9692189532894124,3.4609500773814728,9.04323180943089,9.886017378764626
0.5275069760408164,-1.9821492506226162,3.507166145648304,9.11466801732227,9.960538303377122
0.5475178173624491,-2.036249219723615,3.492362003340049,9.067839436672667,9.932700482167546
0.5675286586840816,-1.9791185655914612,3.4359865247627583,9.096074590440285,9.91833654632399
0.5875395000057143,-1.9629486743867068,3.4012574257314467,9.003035578107534,9.826566806952883
0.607550341327347,-1.9765278138424986,3.395127767686655,8.940721333260479,9.761777011815026
0.6275611826489796,-2.120144435512658,3.4446160633245575,8.862342668461528,9.745238631859655
0.6475720239706123,-1.959200961920003,3.4282952817560597,8.864688566154237,9.700857819470626
0.667582865292245,-1.9252025041811873,3.419552446921015,8.967298944001243,9.792066320048539
0.6875937066138776,-2.056176792235121,3.4722384661203503,9.106761716346584,9.957223831345631
0.7076045479355103,-2.0823779969729697,3.489449385394001,9.108353694175662,9.977191136926022
0.727615389257143,-2.0261920403745948,3.485769008926732,9.198286068036372,10.039664010972329
0.7476262305787756,-1.9360353891850228,3.509874067764623,9.114524645288345,9.960443192040088
0.7676370719004083,-1.8079593844538742,3.4620726789860323,9.015056504683818,9.82130764759634
0.7876479132220409,-1.8482566879611724,3.465259008516754,8.83571233889184,9.672530604989472
0.8076587545436735,-1.9778009121774454,3.432945951996519,8.833696318543154,9.678419827456961
0.8276695958653062,-2.107556885589561,3.4075243420319077,8.97864072819821,9.835005316046406
0.8476804371869389,-2.0814130851064965,3.343260861196546,9.02757650548984,9.84628960477
0.8676912785085715,-2.0565628904302233,3.394795300725494,8.975189756656036,9.816524704953771
0.8877021198302042,-2.113049350433711,3.423924220111252,8.995244218661954,9.85134995435235
0.9077129611518369,-2.1174480865082654,3.4556339642287526,9.000433814461491,9.873458384743467
0.9277238024734695,-2.027038475619988,3.4523830730743104,9.101593182979972,9.940520403452597
0.9477346437951022,-2.02417829372429,3.4698116022330483,9.171507563935617,10.015310591094922
0.9677454851167349,-1.9719884560289869,3.4354281504444972,9.14852464323404,9.966712113919765
0.9877563264383675,-1.8819864294444706,3.3946726291463953,8.989236858961545,9.79395329803964
1.0077671677600002,-1.958164623925272,3.436742039215083,8.943038261235978,9.776359167889836
1.0277780090816329,-2.0253556327944957,3.443812835445725,8.902105892526938,9.75989023774176
1.0477888504032655,-2.012120611876327,3.394614507653948,9.03927630309867,9.860669279197703
1.0677996917248982,-2.0126551393381416,3.3832276882622567,9.06955750727653,9.889495668234423
1.0878105330465309,-2.0017554465652867,3.364412759317047,9.061916443175152,9.869010393213342
1.1078213743681633,-2.0200662081629446,3.4366422206009895,8.997398239911197,9.843240329267267
1.127832215689796,-1.9406348292420352,3.4627060195786425,9.020670200887485,9.853249947711445
1.1478430570114286,-1.888544498655519,3.4552634796330386,9.084862201559467,9.903722221901692
1.1678538983330613,-1.8916408328341752,3.468357050486492,9.117824960861073,9.934769797109823
1.187864739654694,-1.9056305517223104,3.4589318605242805,9.058291246751764,9.883843414931674
1.2078755809763266,-1.8135258651960993,3.4414822407211085,8.972786069199175,9.777682209142199
1.2278864222979593,-1.7746201197985603,3.4339779106559125,8.960350494797671,9.760639792906069
1.247897263619592,-1.8635672812873965,3.4403662937184003,9.023178864459709,9.83291707023224
1.2679081049412246,-1.8071260695303872,3.4023559344723355,8.943400507922712,9.73989156118507
1.2879189462628573,-1.8975587320637832,3.4162124942601175,9.07100541705607,9.875106410033572
1.30792978758449,-2.0249951572561202,3.430572986502783,9.15338254027132,9.98455612285053
1.3279406289061226,-1.9145409907110988,3.41571125273203,9.101342805498543,9.906006092494387
1.3479514702277553,-1.912949950612218,3.442652125177207,9.10155416125884,9.919055392240924
1.367962311549388,-1.9150219995387008,3.4315116986083702,9.081360279605429,9.893271538522958
1.3879731528710206,-1.8645490201824684,3.4150233806184414,9.120427752536681,9.91759038350586
1.4079839941926533,-1.7931487301426319,3.4377948015275925,9.184582422916021,9.967611468182326
1.427994835514286,-1.7484423974534324,3.428459473879991,9.083452259589126,9.866995605960739
1.4480056768359186,-1.7885567121913657,3.440663601638887,9.084170519369659,9.875402143166369
1.4680165181575513,-1.798758166549783,3.4022901928681675,8.982317675907112,9.773864250365113
1.488027359479184,-1.8471734727436515,3.381802675507487,8.97842769873234,9.768727798697723
1.5080382008008166,-1.9874613700117405,3.3821347535653112,9.053377660782479,9.868413029899354
1.528049042122449,-1.9801816716183323,3.3779043671020363,9.106524607513188,9.910996095659513
1.5480598834440817,-1.8515251375436352,3.4069197581801083,9.097469810813532,9.891088061008155
1.5680707247657144,-1.7337839959637618,3.413821692775962,9.176653663107096,9.941586219843765
1.588081566087347,-1.7785542034773536,3.4615513682523082,9.160599341701792,9.954747284301268
1.6080924074089797,-1.7860759309438576,3.4692798330729535,9.113364631109066,9.911943321396006
1.6281032487306124,-1.7580736609500858,3.4373956423735863,9.038294143081346,9.830046327476094
1.648114090052245,-1.7672010285314828,3.405912805575102,9.071608325268642,9.848118467050726
1.6681249313738777,-1.8181461121236793,3.386928272301685,9.129570326633239,9.907500041947904
1.6881357726955104,-1.7612388766249483,3.3305613360448887,9.098816680034613,9.846438306240591
1.708146614017143,-1.8335825385253537,3.383322662701477,9.082778490038768,9.865899439581707
1.7281574553387757,-1.8844258098066446,3.384387935250517,9.142479839571976,9.927791073601046
1.7481682966604084,-1.910770436615058,3.395067667716277,9.171414594855774,9.966077356107224
1.768179137982041,-1.8274535940183967,3.3768987376279576,9.062905401959679,9.841249952294065
1.7881899793036737,-1.8204396800174196,3.394695703230525,8.995271182310702,9.78681490008261
1.8082008206253064,-1.7967321629738024,3.4284352597580203,9.008311908514344,9.803321012552185
1.828211661946939,-1.7993808917500898,3.4424518472930834,9.135132725045036,9.928075504630817
1.8482225032685717,-1.7702639460435643,3.3716976533157594,9.216784020115808,9.97109673032447
1.8682333445902044,-1.7794964871215257,3.354806380711326,9.209042747848663,9.962839064675055
1.888244185911837,-1.873626791564045,3.3726813815750383,9.105961093886455,9.888139074162604
1.9082550272334697,-1.8084745914613702,3.3194127552901658,8.870371989958294,9.643674091430002
1.9282658685551024,-1.826884309535913,3.377315447081847,8.950699291906375,9.738177821129486
1.948276709876735,-1.880585953858646,3.3992619116390776,9.092332616935652,9.888832533599334
1.9682875511983675,-1.8435578071083447,3.4124494674836763,9.202157541154476,9.984827833361345
1.9882983925200002,-1.79481710820465,3.4217809372039967,9.218387473925159,9.996761075216938
2.008309233841633,-1.7225759967652454,3.4112904454319555,9.259944657380338,10.016213396570231
2.0283200751632657,-1.665006253437165,3.404178874736243,9.27205226783515,10.017902951012978
2.048330916484898,-1.632043803846378,3.4054046460350085,9.173145050550103,9.918741394867228
2.068341757806531,-1.6507296178054005,3.3791654231684665,9.00231696423716,9.757620207283841
2.0883525991281635,-1.7380175268163272,3.387422243275822,9.05327033998074,9.819925451486462
2.1083634404497964,-1.7107142110901687,3.372300430956239,9.124243871299418,9.878133803478311
2.128374281771429,-1.6934828819770378,3.3664800393147725,9.14460398927615,9.889404207985582
2.1483851230930617,-1.8050711806486728,3.338106215061536,9.086934306745233,9.848711389899819
2.168395964414694,-1.8588964881320755,3.3921306325637754,9.137728379838833,9.921553314566442
2.1884068057363266,-1.8518077574794725,3.390044176186464,9.210627221244541,9.989062886739037
2.2084176470579595,-1.7784945312972755,3.3825371766070527,9.160761148860802,9.924792370198881
2.228428488379592,-1.7499123577776232,3.3656397756394223,9.06594395140427,9.828721316823303
2.248439329701225,-1.7537880100964904,3.422478084842309,9.016967311342029,9.801776011875077
2.2684501710228573,-1.6833382519380613,3.486725557904051,9.028308611842665,9.824632456765032
2.28846101234449,-1.6605256944760831,3.4474490375491764,9.156649618093377,9.922853018700842
2.3084718536661226,-1.7223149138239346,3.4220712083073614,9.198845062416616,9.965921687629143
2.3284826949877555,-1.721566210019818,3.388228034850494,9.277905229562748,10.024946073611064
2.348493536309388,-1.686073955188855,3.3539601836458104,9.173933765612922,9.913520454524653
2.368504377631021,-1.7217924838439205,3.401535998709867,9.151449414029655,9.912675488939856
2.3885152189526533,-1.7021627040100586,3.3871114641879965,9.11288285888865,9.871064295665523
2.408526060274286,-1.661965878694652,3.404946095991969,9.09663390801469,9.853024100553332
2.4285369015959186,-1.6811586646321235,3.4585620682697855,9.047730840876634,9.832120603571612
2.4485477429175515,-1.6272200609128138,3.4345517522068394,9.09877832928719,9.859513768118912
2.468558584239184,-1.6864255496400549,3.4317553286009908,9.11339130381965,9.884211664871422
2.488569425560817,-1.68710454055297,3.4106413909518287,9.12596517302416,9.886415799475008
2.5085802668824493,-1.763424604993742,3.401359831427968,9.093349051335565,9.868585551324768
2.528591108204082,-1.806650681072284,3.430031371621724,9.107241730364327,9.8970491415087
2.5486019495257146,-1.7612771475424132,3.4385374960455843,9.018067541857068,9.811752169560101
2.5686127908473475,-1.6758357227875924,3.4313231096473022,9.033442675511436,9.80642210167413
2.58862363216898,-1.7027705433020797,3.4881882869006526,9.100813169651035,9.895012629802846
2.6086344734906124,-1.699713663078364,3.4858940690082187,9.204632133579707,9.987323837248516
2.6286453148122453,-1.6399511444327735,3.4775358478532343,9.1892858481115,9.962213282711584
2.6486561561338777,-1.652622899196793,3.4815290318218097,9.176702875611696,9.952115333825924
2.6686669974555106,-1.6567177316017851,3.4794136044608646,9.145309486119652,9.925091979339967
2.688677838777143,-1.638347750689895,3.4447434905086056,9.082205244911473,9.849752873785256
2.708688680098776,-1.681255917031258,3.447929168301788,8.979357997441436,9.765354549967647
2.7286995214204084,-1.7367585619883035,3.466315892964963,9.035419830590946,9.831245433331459
2.7487103627420413,-1.7396052516378084,3.462622880854322,9.04466060911673,9.840699451647398
2.7687212040636737,-1.7310274879672158,3.4661019354954963,9.108862019846727,9.89769791517249
2.7887320453853066,-1.7742161850412161,3.474838287934308,9.1149071701458,9.915701276402785
2.808742886706939,-1.7570814520953328,3.4760450040436552,9.170263010554779,9.962312586711107
2.828753728028572,-1.6971629072045427,3.465555921266586,9.181057291993321,9.959880799964058
2.8487645693502044,-1.679103133796518,3.4698258740780292,9.19243475213906,9.967090146682045
2.8687754106718373,-1.6962827212948943,3.4948479930650644,9.076996993512193,9.874258163330063
2.8887862519934697,-1.684814305707738,3.5076044686138674,9.033356605540423,9.834990181934597
2.9087970933151026,-1.664727350299711,3.4959236049695637,9.052347681090989,9.846540557544797
2.928807934636735,-1.6397412538885483,3.4679187639848266,9.075489838520816,9.852110139988932
2.948818775958368,-1.6293641411160318,3.426784214780003,9.044684366015241,9.80914717729471
2.9688296172800004,-1.7018891677257797,3.450504885436997,9.101938523521211,9.880929683443897
2.9888404586016333,-1.774585326652041,3.4653348550440928,9.144818168996522,9.939868707328015
3.0088512999232657,-1.7399296603496175,3.4732726993425898,9.17288161706247,9.960808225697258
3.028862141244898,-1.6998549251394885,3.4592165927679455,9.20961156243327,9.984410420338289
3.048872982566531,-1.6968387240959966,3.48554774289292,9.213226123671342,9.99487048847989
3.0688838238881635,-1.677273600737494,3.457728830599726,9.110185908935941,9.88834203351046
3.0888946652097964,-1.6564340434119955,3.514777957353363,9.063023209930012,9.860121828909744
3.108905506531429,-1.6496191286746065,3.489618115648677,9.055050457698712,9.844179858026761
3.1289163478530617,-1.6903569685568742,3.4613811069599785,9.076870847193687,9.859718912550612
3.148927189174694,-1.7084887487703855,3.3840498891024304,9.092530712275757,9.851877999283216
3.168938030496327,-1.7811973670227477,3.429428240098945,9.128383993666887,9.911971128811187
3.1889488718179595,-1.7360185466714249,3.4176954627798013,8.978359424754297,9.763157424132212
3.2089597131395924,-1.7309978887068456,3.4198180874510764,9.008346016230613,9.789235710309459
3.228970554461225,-1.8007183519258816,3.423540674823779,9.09724784118208,9.886187617840184
3.2489813957828577,-1.8486651880378573,3.421894088783352,9.175683317896604,9.965312525405814
3.26899223710449,-1.7958309639639374,3.483224652987218,9.172649763054588,9.975410331642413
3.289003078426123,-1.6762502700158801,3.52334192869368,9.209988280290567,10.001703309336657
3.3090139197477555,-1.655862419406198,3.538793125096257,9.189924067949452,9.986657167477077
3.3290247610693884,-1.6945756375222052,3.54068986345708,9.15574038231281,9.961077213914331
3.349035602391021,-1.7184970702172093,3.50109096057358,9.075632197211869,9.878816741390336
3.3690464437126537,-1.7163988032933104,3.4512025236163177,9.147357520059394,9.925645449478235
3.389057285034286,-1.703106116837308,3.3931633188081176,9.044051951065796,9.809247733503781
3.409068126355919,-1.7267910790508967,3.4183848564196477,8.956748356385834,9.740612195586486
3.4290789676775515,-1.7996796694285764,3.4321627812225546,8.932737430878996,9.73771760535104
3.449089808999184,-1.7795455299525598,3.4431507241070958,9.008826745007154,9.806640314825222
3.469100650320817,-1.7762549516264403,3.4513451184249906,9.139763296843913,9.930459894276291
3.4891114916424493,-1.7002685592373206,3.4479989093300984,9.21790764303141,9.986897371263291
3.509122332964082,-1.543090832844489,3.468196513935887,9.201169602853856,9.954007893616456
3.5291331742857146,-1.4484596418956537,3.5111466738860875,9.186884030465324,9.94057648721716
3.5491440156073475,-1.405944645544039,3.5243443730752895,9.092392405045883,9.852853053182175
3.56915485692898,-1.4459523565110621,3.5301380543123826,8.990219801096691,9.76565444979312
3.589165698250613,-1.4092059881002479,3.5106027907427375,8.8881839759727,9.660214582374444
3.6091765395722453,-1.4375981271303733,3.520805620401979,8.996973784760879,9.76729783391336
3.629187380893878,-1.3902801018310165,3.5249541789115644,9.062608547532179,9.82347664874218
3.6491982222155106,-1.184340296825225,3.577104191185326,9.11079207264278,9.858613751651546
3.6692090635371435,-1.0503110022368598,3.6523223124439084,9.221111295114504,9.97430961348463
3.689219904858776,-1.051581188184323,3.6485560713728176,9.228809023835357,9.978658286243071
3.709230746180409,-1.2373390356866545,3.7555003348142386,9.217371604192017,10.030348197239729
3.7292415875020413,-1.3467142107733368,3.794198045751485,9.237370356452082,10.076096500904224
3.749252428823674,-1.1341907983604498,3.681705383808622,9.175411268397344,9.951956544722993
3.7692632701453066,-1.0559182785382832,3.6244153794405336,9.046526107744906,9.802160379030097
3.7892741114669395,-1.310094532050122,3.709882871847173,9.01192168245404,9.833529226263726
3.809284952788572,-1.5166709130457487,3.717161340582162,9.100835907355016,9.947044480809824
3.829295794110205,-1.590887932159084,3.536974226424031,8.930832577091614,9.736429988209101
3.8493066354318373,-1.8564028327456579,3.673263382291285,9.029335719173169,9.923541621361219
3.86931747675347,-2.1544040648310676,3.8862602151272374,9.263173828730226,10.273191098395547
3.8893283180751026,-2.185324009795569,3.828610069256767,9.553090093761774,10.521667056001466
3.909339159396735,-2.0313012307767577,3.8348735835434264,9.559577374857946,10.498345885111718
3.929350000718368,-1.9899079248753715,3.8948103124800677,8.930789815893787,9.944396030914774
3.9493608420400004,-2.2620466099935705,3.901925562957637,8.368309817106502,9.506208875034206
3.9693716833616333,-2.5953172870644723,4.201600536100366,7.906636639712137,9.322229525244635
3.9893825246832657,-2.4072011153079944,4.28405982390948,7.849414754520933,9.261185548401706
4.009393366004899,-2.057192808596589,4.190090008254496,8.133665571116907,9.377284387807792
4.0294042073265315,-1.960236447014192,4.099147986858871,8.5962174224985,9.723870149561543
4.0494150486481635,-1.799394177146886,3.8754124058689556,9.01107916783728,9.97203989231909
4.069425889969796,-1.814806562741147,3.742301160701931,9.214065242847248,10.10997791216545
4.089436731291429,-2.0258164502823024,3.782849068255529,9.123124378376552,10.081441660111935
4.109447572613062,-2.229461048536228,3.9313835573392932,8.857979514404656,9.944649472785235
4.129458413934694,-2.239159883986899,4.005105996094861,8.592321156386383,9.740552731256038
4.149469255256327,-1.979317493919903,4.0650750204036665,8.450752127400422,9.584565138358895
4.16948009657796,-1.5576323640880876,4.1909147972304455,8.483172178142256,9.588945280094197
4.189490937899593,-1.2448495302294926,4.254533068730142,8.516105343804462,9.601124942992957
4.209501779221225,-1.1400894540429767,4.20541279191393,8.463917567721575,9.519342596966464
4.229512620542858,-1.1889164293761088,4.256595250875097,8.408953353469105,9.499838056642501
4.249523461864491,-1.2945314906082641,4.325932263984289,8.358071035704043,9.499758916692498
4.2695343031861235,-1.37307558096787,4.266863236654502,8.432703271357129,9.550019605446659
4.2895451445077555,-1.368622273668137,4.232356549365302,8.677115493782216,9.750796857992091
4.309555985829388,-1.3767392399739788,4.237716129940038,8.984050974208714,10.028347201910355
4.329566827151021,-1.2654870604776738,4.1150698850478795,9.166155924472367,10.126774693055811
4.349577668472653,-1.390172922336525,4.1708358328460715,9.301577852766906,10.288338298727354
4.369588509794286,-1.6332151305027973,4.374279128477147,9.441838792483482,10.533324558654682
4.389599351115919,-1.8505855288630422,4.529658366349502,9.639228956622938,10.809918474631694
4.409610192437552,-1.9855865976250797,4.712321505218972,10.000577686818119,11.232356485091527
4.429621033759184,-1.7315765532936538,4.82103027586125,10.380469545685061,11.575369158687964
4.449631875080817,-1.060528697048954,4.777119508608033,10.361097568378389,11.45883860537401
4.46964271640245,-0.7520377596131002,4.696717008191521,9.9707422496346,11.046880366716703
4.489653557724083,-1.038818044021914,4.567447386519942,9.48300838359925,10.577085039643736
4.509664399045715,-1.3178236309100677,4.443863460287479,9.05525010836506,10.173482409909106
4.5296752403673475,-1.4146882901416817,4.163245009190648,9.990857538862139,10.914442871847953
4.54968608168898,-1.1623934938218345,3.735814716459907,10.915265610024152,11.599160684821038
4.569696923010613,-0.7956239602248921,2.829085055755214,11.770336273914332,12.1274105105189
4.589707764332245,-1.254668722953453,2.466114444430922,11.254270521282015,11.593632440498219
4.609718605653878,-1.766487760234349,2.347139694484878,10.049465404530217,10.466788560324659
4.629729446975511,-1.8560498298216532,2.28142648281346,9.151484681359001,9.61535577025314
4.649740288297144,-1.6836856030263951,2.3578333288920725,7.766731542366456,8.287111303315168
4.669751129618776,-1.0936906907223218,2.4825665644959054,6.711385567055246,7.241226497222805
4.689761970940409,-0.23413513909790218,2.6883355190932194,6.50500705276432,7.040429145376951
4.709772812262042,0.35947085664161094,2.861098594105055,7.0080197638206085,7.579702309586199
4.729783653583674,0.3384161627951963,2.7768557674000527,7.8239120564888776,8.307948194973916
4.749794494905307,-0.15658315015401403,2.5410142009897783,8.233733475506918,8.61903032776536
4.7698053362269395,-0.8913700800321834,2.560880302702596,8.747269493515496,9.157565332950634
4.789816177548572,-1.62006202483666,2.678943927072754,9.293990945244262,9.80737549344117
4.809827018870204,-2.044590041648253,2.745520876484952,9.403537656721515,10.007066681946439
4.829837860191837,-2.0069629622657343,2.9969081910464292,9.06838190147359,9.759459576179527
4.84984870151347,-1.6054868284387396,3.316615998759735,8.506779042478746,9.270573181962114
4.869859542835103,-1.3132845102355342,3.616487967990626,8.042734508668577,8.915378262941202
4.889870384156735,-1.194747986552784,3.8489654413693835,8.018877310724452,8.975232070339533
4.909881225478368,-1.1761264657790713,4.015932933391875,8.33110763470555,9.322352691563362
4.929892066800001,-1.0570416024499663,3.8372080756971823,8.797805474297357,9.656507518320558
4.949902908121634,-1.3207624826470914,3.7534489323128457,9.227924880085489,10.04910698241039
4.969913749443266,-1.576304844744539,3.7687420530821587,9.478601220566327,10.32185942993848
4.989924590764899,-1.435083059463795,3.768614051653081,9.453104839157628,10.276815682410563
5.0099354320865315,-1.084534743489684,3.9458084018968353,9.456978116156279,10.304863667574732
5.029946273408164,-0.9437954040940238,4.224054194267779,9.517099450469832,10.454672082485327
5.049957114729796,-0.8530448039876616,4.366633570931788,9.866271471735923,10.823496457602898
5.069967956051429,-0.9638405953134013,4.557082384989224,10.307547577976022,11.310674980177586
5.089978797373062,-1.081962354609765,4.624234668273447,10.283970814264137,11.328268438322743
5.109989638694695,-1.06233467713613,4.5739393803261414,9.447395883340107,10.54883422652748
5.130000480016327,-1.0574916750905012,4.503265685473391,9.306287633470232,10.394584972986975
5.15001132133796,-1.1654367137346302,4.3642522639602435,9.586074395799209,10.594204991306082
5.170022162659593,-1.0530969113139321,4.087891455789649,9.759469195230103,10.637340906323525
5.190033003981225,-1.0023019424667976,3.8955079266864416,9.393714942711348,10.21395612551634
5.210043845302858,-1.5733739517080623,4.210734935363326,8.449631235475891,9.57492049967457
5.230054686624491,-1.7923367143075866,4.301353948406239,8.804952265315102,9.9602696796041
5.2500655279461235,-1.2434491214688252,3.6178453849038226,10.027382489957684,10.733063894784195
5.2700763692677555,-0.9620747216821396,3.106357735132243,11.697879066200809,12.141396043691667
5.290087210589388,-0.5658762082465734,2.080070499904595,12.896756250231698,13.075877256425796
5.310098051911021,-0.5648329418664227,1.3154886027620374,12.621672864342157,12.703250859971648
5.330108893232654,-1.1035517653170075,1.0306423134358424,11.48980659169636,11.587494879135946
5.350119734554286,-1.5711208234371716,1.1197179146093605,9.938628665956685,10.125812376492723
5.370130575875919,-2.093316220833225,1.9732128485022513,8.58642082794411,9.052957572634522
5.390141417197552,-1.895664821729549,2.3998495530524315,7.697749594985155,8.286417099461154
5.410152258519185,-1.2968909634156935,2.376076949532654,7.695596421409533,8.15431115033439
5.430163099840817,-0.9928048375028978,2.394835451685517,7.927669706968841,8.3438988922816
5.45017394116245,-1.3268825997922293,2.3435712754829767,8.04604778600924,8.481765633217748
5.470184782484083,-1.7353493945163285,2.304509884538762,8.01404293660728,8.520742394321863
5.4901956238057155,-1.885971813376041,2.52163546545073,8.443552822868558,9.008219164793472
5.5102064651273475,-1.8102828367208956,2.6740030983097234,8.518877508041747,9.113920800080813
5.53021730644898,-1.746949060316907,2.7930827477965297,8.470327928060984,9.08466685551608
5.550228147770613,-1.1968411998650836,2.8803528614090155,8.335507256230079,8.902382838559413
5.570238989092246,-1.2281754877102045,3.1619039163254308,8.815985236192013,9.446204094885935
5.590249830413878,-1.566838165976231,3.3978145800440505,9.276952179218293,10.004168033075848
5.610260671735511,-0.9756974735318924,3.146267815991896,8.9977184972848,9.578980803158169
5.630271513057144,-0.7705134665313603,3.2489520793321236,8.66722154404848,9.291394421498355
5.650282354378776,-0.5430559680156286,3.5029411646856383,8.375531841772759,9.091615898519658
5.670293195700409,-0.6426996571354284,3.6622411519706604,8.205495634995788,9.011554966554973
5.690304037022042,-1.0541675379933606,3.9380599107405856,8.489408489317444,9.415169869908725
5.710314878343675,-1.4766298857185298,4.075252412232689,8.880715704497492,9.883861168200596
5.730325719665307,-1.337754671340758,4.060169339976662,9.350966024399472,10.280535605257443
5.7503365609869395,-0.8697354774904559,4.0382447914451065,9.315861843376497,10.191553088416725
5.770347402308572,-0.753626459871689,4.25298021329486,9.264793734818358,10.221377226455505
5.790358243630205,-0.8863623281520258,4.355206935233235,9.70111358268604,10.67178664648768
5.810369084951837,-1.2475227156989988,4.233564015359054,10.273630625818381,11.1803053769846
5.83037992627347,-1.4750369688153633,4.120500717395813,10.304903103014452,11.19738496812864
5.850390767595103,-1.6513602955876163,4.127134301562951,10.280915018304327,11.199443511319709
5.870401608916736,-1.9193747694514067,4.37750551282841,9.89387649645015,10.988959426177722
5.890412450238368,-1.5793538280565367,4.52797965514771,9.56040227670879,10.69422939580259
5.910423291560001,-1.200015374888945,4.73931332173101,9.189679456891305,10.411389853887094
5.930434132881634,-0.8010711186916153,4.998481211616129,8.973337571583631,10.300458786049562
5.950444974203267,-0.6495983127262667,4.8912382615033385,8.78393607792595,10.077398283030503
5.970455815524899,-0.7689818448816468,4.62904925178441,9.043606347571686,10.187921723736077
5.9904666568465315,-1.3665164118340283,3.403357110462056,10.907243319178143,11.50881633630345
6.010477498168164,-2.337567136463738,1.9786302455933196,11.277130041429201,11.68557708559992
6.030488339489796,-2.9048026048298867,1.5392416971042682,10.384701779279771,10.895482073408914
6.050499180811429,-3.256562904008434,2.3481482297698086,9.280380980099018,10.109055072773568
6.070510022133062,-2.3136026598553365,2.744624665248147,8.729810055375852,9.441060080980973
6.090520863454695,-1.3286039627774315,3.0316430399120913,8.009218611199174,8.66609311545683
6.110531704776327,-0.73357171064159,3.133063416067445,7.0760575981146925,7.772230182523557
6.13054254609796,-1.1320858837886782,3.3467371074245778,6.440222098035374,7.346026814972617
6.150553387419593,-1.5887076245896712,3.193857988182097,6.900078057165869,7.76881541124695
6.170564228741226,-2.1555003011381624,3.18409388277383,7.631890846675194,8.545302032299414
6.190575070062858,-2.2437609736057116,3.3481877795020925,8.199814639247117,9.138870148453995
6.210585911384491,-1.7116103340418254,3.385122174001121,8.023163735632767,8.871862247954054
6.2305967527061235,-1.515558718176751,3.5593330753667782,7.8905936890312045,8.790593585803057
6.250607594027756,-1.4511825281097193,3.783234967323261,8.314941659490357,9.247033020136671
6.270618435349388,-1.4553519027400201,3.9503098429856447,8.592926230009839,9.571624785467911
6.290629276671021,-1.3305551629651213,3.841625726071578,8.478079363697171,9.399620805243032
6.310640117992654,-1.6263157959928318,4.134396394918688,8.162856632149365,9.295349176718794
6.330650959314287,-1.8422526245180317,4.334456065396575,8.287358274377766,9.531454999407698
6.350661800635919,-1.958470387921847,4.497099489739167,8.438477018758581,9.760682759096454
6.370672641957552,-1.589077502874313,4.678885535331553,8.626905645566314,9.941993277825027
6.390683483279185,-1.045305221475959,4.787079978306639,9.227661244624965,10.448406392110424
6.410694324600818,-0.8765040477690699,4.845309618124688,9.524625739956756,10.721229151415075
6.43070516592245,-0.9369702090970892,4.848410980598297,9.751735268828037,10.931764327311505
6.450716007244083,-0.9454815287919416,4.723399727575224,9.875290953111817,10.9867159505377
6.4707268485657154,-0.8558388164336435,4.5054090701128855,10.200658546075681,11.184858279710609
6.4907376898873475,-1.06370367620077,4.3614609606381665,10.706518018174323,11.609097611279717
6.51074853120898,-1.4986251440384015,4.4065542343501365,11.152708801574205,12.085387182740286
6.530759372530613,-1.640713391389651,4.546500456919917,10.51003117731817,11.56767965351575
6.550770213852246,-1.7179286613450158,4.568949917880967,9.823362665433105,10.970032163011874
6.570781055173878,-1.7240596230369791,4.653946267728784,9.806843560765541,10.990357199011656
6.590791896495511,-1.7731417671479086,4.6321328268496105,9.903097468952815,11.076491561628794
6.610802737817144,-1.461637892654867,4.296164766516939,10.09277728470151,11.065420501004294
6.630813579138777,-1.3625692863617977,3.721878712627008,10.270988620452078,11.009858636963534
6.650824420460409,-1.8986810949692294,3.189955142903886,10.079087430295706,10.740779002789285
6.670835261782042,-2.5089621970928784,2.945655972406032,9.461389261586422,10.221636569609593
6.690846103103675,-2.2502159333626723,2.8723834842522353,8.907118245264849,9.626312180305145
6.7108569444253074,-1.7046462164435208,3.158797997628873,8.695345165520598,9.406474871288259
6.7308677857469394,-1.3305315773130364,3.311433937976679,8.366315299916693,9.096074153210656
6.750878627068572,-1.2534221364700375,3.3193226454821034,8.300401519184254,9.02759137576658
6.770889468390205,-1.451538345152378,3.279633569215446,8.371243692465184,9.106604287313223
6.790900309711838,-1.605998126243603,3.1976781412543143,8.089106467167506,8.845845084494712
6.81091115103347,-1.7846388743015549,3.0634810975391895,8.030874075584066,8.778107399456358
6.830921992355103,-1.822970191905659,3.137795352594434,8.071564187007823,8.850709436202086
6.850932833676736,-1.7458376391763855,3.2629886003019974,8.06527917445022,8.87352509923666
6.870943674998368,-1.6457846131431266,3.297627715766794,7.909961506909796,8.72691724906867
6.890954516320001,-1.4252599136490525,3.3737613168369687,7.384114249508862,8.242297640202496
6.910965357641634,-1.2296767082860838,3.6150006540682464,7.191940928738888,8.142986617565963
6.9309761989632666,-1.1052222800562645,3.853578931384497,7.460877475312142,8.46942485715294
6.9509870402848986,-1.1691418823805109,3.896232602372101,7.657517401837835,8.67131909009769
6.970997881606531,-1.191516623844618,3.972795934314526,7.946828719304581,8.96378566351057
6.991008722928164,-1.1784233505432862,4.189618313319557,8.366701313952621,9.431404579694536
7.011019564249797,-1.1912248888572887,4.345066333224608,8.516152067153463,9.634154106901002
7.031030405571429,-1.1020845443071479,4.522690538945224,8.22059079387268,9.447343344799465
7.051041246893062,-1.162044786646505,4.677904891016573,8.402882155838753,9.687165661738597
7.071052088214695,-1.2414299785363703,4.713953288900061,8.93478017477689,10.17803015985326
7.091062929536328,-1.392113331270686,4.750780132611373,9.685829871071304,10.87771609328773
7.11107377085796,-1.3292792861021496,4.727380311455261,10.198753064656087,11.319274207884474
7.131084612179593,-1.2904269955695318,4.8091387400786685,10.342433489352343,11.478770920508959
7.151095453501226,-1.132851326483904,4.677447758678312,10.495278480065801,11.545971816116237
7.1711062948228586,-0.9694381662115221,4.561914706803718,10.786032467315202,11.752120307101228
7.1911171361444906,-1.094759905897084,4.524317429522472,10.908921572520306,11.858764159782941
7.211127977466123,-1.4173190267890647,4.421441335107364,10.003257387690743,11.031912813279282
7.231138818787756,-1.7079522553091853,4.192738303540719,8.679407335822651,9.784540387374296
7.251149660109389,-1.8592514514320595,4.108950162713073,8.586276350600258,9.703817617228276
7.271160501431021,-1.6388680491109595,4.437403572926875,8.962671117883275,10.128285015004188
7.291171342752654,-0.7582144230571259,4.263381223040921,9.509901642465259,10.455023224425005
7.311182184074287,-0.780557167580973,3.8457074187461315,10.025245127277524,10.763027178579886
7.331193025395919,-1.7810652634117934,3.102355431375693,10.758166743843246,11.342872486482817
7.351203866717552,-2.1852726990910187,2.155860317957613,11.580273989054302,11.973772762446131
7.371214708039185,-2.606407686288465,2.465152465218104,10.216112719556127,10.82786460964875
7.391225549360818,-1.6918745356015605,2.7609929911959887,9.015666720481347,9.585565252311543
7.41123639068245,-0.6993715409781508,3.323763848972769,8.087833361037843,8.770026017742728
7.4312472320040825,-0.8971279798243436,3.881314255171866,6.836360568043657,7.911366109799567
7.451258073325715,-0.9962546344595842,3.768854790972847,6.451581002660155,7.538364753617124
7.471268914647348,-1.250914726486003,3.7064833718897545,7.006520491309266,8.024934936960472
7.49127975596898,-1.4528004917447825,3.720108386993608,7.74394707867452,8.71242124364768
7.511290597290613,-1.4794755991699884,3.7027381600431486,7.893084609937597,8.844046523451059
7.531301438612246,-1.328999455069074,3.6611920507275193,7.709430746718482,8.636335881536258
7.551312279933879,-1.24714801900847,3.8177957767438913,7.943547064684411,8.902623596110077
7.571323121255511,-1.2212328623287063,3.9180441176694325,8.221146857924687,9.18724155673243
7.591333962577144,-1.3511506712529429,3.912038963604661,8.254731805362153,9.23538980466149
7.611344803898777,-1.285663545321017,3.8490900426114005,8.461959545177317,9.383285060422255
7.63135564522041,-1.2743500992671999,3.9124215296727347,8.708928683147446,9.633773026277881
7.651366486542042,-1.2490385580190184,4.013840234315752,8.701674339943596,9.662208200438418
7.6713773278636745,-1.2095819038792985,4.213971870848517,8.579519148070915,9.636236816810793
7.691388169185307,-1.0045143638289111,4.312314565356828,8.758225253115867,9.812409610247768
7.71139901050694,-1.0928827999603716,4.705727793300383,8.728970404379726,9.980162606209158
7.731409851828572,-0.9851121799722518,5.037720317908328,8.81654257278266,10.200374509791908
7.751420693150205,-0.7060656538779869,5.043936517106027,9.237279343310432,10.548943641056423
7.771431534471838,-0.7999064604073272,5.081121030759456,9.790857080810323,11.059473144511136
7.79144237579347,-0.6321091105390773,4.818007527986448,10.23648211583322,11.330222291471992
7.811453217115103,-0.9438726458595162,4.698326736954498,10.849517424864176,11.862427688068193
7.831464058436736,-1.3985467665790403,4.44030591399579,10.829720849833267,11.787025368957211
7.851474899758369,-1.7983847782642663,4.528517731045646,9.996827742430607,11.118762338136763
7.871485741080001,-1.6652850670619426,4.419096424046374,9.663671672089318,10.75952338914321
7.891496582401634,-2.311818769750081,4.611331163985615,9.593298995099827,10.882579829419761
7.9115074237232665,-2.309410751244079,3.958929910917612,10.69169588495895,11.646745905305037
7.931518265044899,-2.3693912105419748,3.7156188191840793,11.834352784690466,12.619341411845271
7.951529106366531,-2.0598818062276942,3.3366443630177347,11.993565772287361,12.629375666460664
7.971539947688164,-1.3056018634475142,2.677368843300798,10.895241090103163,11.293648881289803
7.991550789009797,-1.9416225676839907,2.899593069546789,8.376782016510036,9.06976059929047
8.01156163033143,-2.0022779164565208,3.0430253401569636,7.610093188324873,8.449408107979762
8.031572471653064,-2.438504590569247,3.8971551273054126,7.363174220409105,8.663513136642829
8.051583312974696,-1.7034005999912796,3.698951717616345,7.460938637790254,8.50998637581485
8.071594154296328,-1.2416377672905947,3.356512581862953,7.2941047272854105,8.120173841938719
8.091604995617962,-1.43465570090067,3.229491665697434,7.425062746911729,8.226740897554327
8.111615836939594,-1.7095367381110562,3.2741182366921366,7.7071461250175695,8.54324874250871
8.131626678261227,-2.0175855615735414,3.2510363056582072,8.082666350729804,8.945999156831725
8.15163751958286,-2.2567618794009277,3.2500894443555115,8.023767794157395,8.942498283889186
8.171648360904491,-2.103974025456,3.2349619489604744,8.086854097263851,8.96361350189547
8.191659202226125,-1.944372151914312,3.3528366746419236,8.14408156651007,9.01682590632002
8.211670043547757,-1.671033408128505,3.501552998707315,8.178295647407111,9.054507223624991
8.23168088486939,-1.4356348715473537,3.7274414507133136,8.010117752300241,8.948386253564797
8.251691726191023,-1.364006428184224,3.8488700455033804,8.135098563043769,9.104854333680263
8.271702567512655,-1.459678529695518,3.980219734102532,8.23725411850294,9.261622355930742
8.291713408834287,-1.4303915381615413,4.054796738778468,8.30032920713273,9.350724454505075
8.31172425015592,-1.4120797054173144,4.21671248586766,8.417405496628508,9.517206476838602
8.331735091477553,-1.474902057855677,4.392280131196742,8.499297469594282,9.68358178094559
8.351745932799187,-1.3720150178773405,4.491727658187824,8.509283796015014,9.715829280162827
8.371756774120819,-1.2469198846473233,4.588232712829651,8.956856527779232,10.143905658064291
8.39176761544245,-1.1277383366262357,4.667249493782312,9.278933392832496,10.444636999059606
8.411778456764084,-1.1203886996766672,4.668421804906459,9.72243361585095,10.846011032118195
8.431789298085716,-1.1825273763855038,4.65916271080008,9.721012727296612,10.841560665809109
8.451800139407348,-1.4038941793361615,4.649737246207579,9.894984042251446,11.02662361797522
8.471810980728982,-1.6909968141226024,4.6214005986799105,9.759104219138646,10.925192565723144
8.491821822050614,-1.944616278848082,4.634250371053066,9.360731807694183,10.630400096842283
8.511832663372248,-2.147725536171191,4.762158169970816,9.3378053127422,10.693193558621875
8.53184350469388,-1.5914006232955864,4.7495889003312355,9.609410932198433,10.842672359048088
8.551854346015512,-1.1595175762978664,4.859935616790487,9.375689696889161,10.618199945991059
8.571865187337146,-1.039932600896278,4.98816485642693,8.946876916448696,10.30329535894831
8.591876028658778,-1.018041102647578,4.745817300742797,8.422401635967931,9.717180935431895
8.61188686998041,-0.6278438761293649,4.065310974084916,10.53825974909706,11.314469835491485
8.631897711302043,-1.7298990783355792,3.9293662173786488,12.108054026195344,12.846742824631148
8.651908552623675,-1.6282564322331678,2.2759603310534153,12.757232742691963,13.04775079868592
8.671919393945307,-1.9960605848744835,1.9813925044086351,11.11030555010999,11.484265725591237
8.691930235266941,-2.0865401166914586,2.4191307557705115,9.628201901544802,10.136959434039232
8.711941076588573,-1.3130491824662958,2.6960654628408087,9.235570083661337,9.717887446550455
8.731951917910207,-1.075324054575345,3.5129444289235208,7.81856773734747,8.628463198824038
8.751962759231839,-0.3836800146261431,3.6857030652190654,7.0540351876139615,7.975899434361639
8.771973600553471,-0.20141216425069855,3.830556769677625,6.844540103906914,7.839675601222245
8.791984441875105,-0.5004114982666515,3.8885917865446125,6.899261428266909,7.941398267530769
8.811995283196737,-1.2472440338725614,3.7301440576600386,7.330412421044368,8.313418253787086
8.832006124518369,-1.6671162637100758,3.669679654603009,7.761641202285533,8.751013485758717
8.852016965840003,-1.4256272313563747,3.7656116649654288,7.980069707297021,8.93352536031318
8.872027807161635,-0.9273939825596498,3.8008838663448885,7.964810659138987,8.878506133914327
8.892038648483268,-0.7392188399442738,3.8283444962263005,7.777678661706986,8.695753273488902
8.9120494898049,-1.0327397311689943,3.827489586714763,7.828756857554738,8.779404379358953
8.932060331126532,-1.3018894647524002,3.960492274702728,8.107200120163654,9.112943682562502
8.952071172448166,-1.2425420838430896,4.160500552737775,8.334406287115081,9.400765190000103
8.972082013769798,-1.0330069624513734,4.306127838564201,8.224532986023396,9.338065669644347
8.99209285509143,-1.0178829396769133,4.565295519059698,8.088100307013198,9.345906089233349
9.012103696413064,-1.2005406035798847,4.9508331898723,8.268533263962926,9.709896588902428
9.032114537734696,-1.0759550699990625,5.11900151191522,8.565371071726661,10.037984592260953
9.052125379056328,-1.1412502395744908,5.265767049785562,8.656223800996239,10.195580924837778
9.072136220377962,-1.4226254005007306,5.529716143972554,8.769975957778321,10.46367256126477
9.092147061699594,-1.4833506843932713,5.387357268600814,9.775919816529914,11.26132990617317
9.112157903021227,-1.553306650751472,5.297968207872839,10.88667800097126,12.207208410995383
9.13216874434286,-1.530586187671942,5.305265294049337,11.424540883151305,12.687521503222579
9.152179585664491,-1.3829294312414269,5.140465806768835,11.194146802091984,12.397792969672485
9.172190426986125,-1.44483804752917,4.99729488781008,10.239130294392325,11.483152363480015
9.192201268307757,-1.3429665212652957,4.742287361348894,9.866335485550364,11.030563481861313
9.21221210962939,-1.824368354024342,4.475501408325298,9.790295507453235,10.918454016182428
9.232222950951023,-2.686126793028015,4.3601084052373285,9.571618575155908,10.85124038707645
9.252233792272655,-2.3063407577407506,4.04719315154193,9.901995475823785,10.947698205652575
9.272244633594289,-1.6311083751879858,4.022538150694767,11.107042177572787,11.926505016940705
9.29225547491592,-1.3073815945593497,3.3844701621276783,10.92080801504892,11.500228758660445
9.312266316237553,-1.8837419109462283,3.0640536029648064,8.721906969739955,9.449724801545129
9.332277157559187,-2.187278271357651,2.967831853103638,7.727525221437727,8.552360642287393
9.352287998880819,-2.258025504871008,3.1219872182898243,7.467082117229885,8.411188746640587
9.37229884020245,-2.433398014774754,3.378862209720277,7.692933882312053,8.744685485847661
9.392309681524084,-1.9529280941696452,3.1705639066139963,8.288671440932337,9.086390009838405
9.412320522845716,-1.7214628267931333,3.0394068734137885,8.116816625205935,8.837752631318141
9.432331364167348,-1.7893102455896979,2.912577918051277,8.332704460951424,9.006411250665304
9.452342205488982,-2.1067690790334144,3.0245910867878743,8.519981132678362,9.282069352791405
9.472353046810614,-2.2572282304557456,3.0230871753007302,8.4395903908723,9.24639760844836
9.492363888132248,-2.1518304303261626,3.1047656067680087,7.954430898278314,8.803575127448282
9.51237472945388,-1.8432113199280071,3.3803126395018,7.933229240658438,8.820370266569554
9.532385570775512,-1.6212603717286491,3.5961944618594015,7.810495797818014,8.74799509336824
9.552396412097146,-1.4379044057220993,3.6181299278001835,7.56869609584889,8.513748016610796
9.572407253418778,-1.551111059992474,3.880588580526694,7.518482296483101,8.598742662072063
9.59241809474041,-1.434644599721945,4.008832699431419,8.000567704039312,9.065733366486429
9.612428936062043,-1.4903321557529796,4.14768617248277,8.688994559936909,9.740459795553429
9.632439777383675,-1.5377468739805749,4.268571431458784,8.706214019653546,9.82029431553488
9.65245061870531,-1.4711610733204117,4.396895416130176,8.031798212823315,9.270689418703991
9.672461460026941,-1.3062044489757574,4.551801984202421,7.925050226217131,9.235407153358162
9.692472301348573,-1.2886507301234547,4.763602404503773,8.510521402250104,9.834761672796882
9.712483142670207,-1.2264770258796454,4.8249801053789705,9.215934343101544,10.47731851765509
9.732493983991839,-1.2057673158455289,4.767964713240769,9.462231825280845,10.661380948865117
9.752504825313471,-1.193549174779639,4.613020336780718,9.662226148278643,10.776001964132032
9.772515666635105,-1.4479156125424792,4.616810050080877,10.057020548065527,11.157558872503579
9.792526507956737,-1.6977436913455644,4.687845479875402,10.202104966081182,11.358639563655634
9.81253734927837,-1.6111808308347049,4.670558267033923,9.850128530283028,11.015533192285057
9.832548190600003,-1.7030671728480964,4.862328083501756,9.289406590329115,10.6270818977293
9.852559031921635,-1.7159282216594538,4.8782649391730235,8.835036568953875,10.234371450350855
9.872569873243268,-1.41570254319037,4.981310126943659,8.432900067023885,9.901400076992928
9.8925807145649,-0.9778759007622466,5.11051676215107,8.205045410218453,9.71410347612057
9.912591555886532,0.055220845740680306,4.68519381076161,9.0376437613958,10.174883061996796
9.932602397208166,-0.1636611337869911,4.479705443924218,10.244363707337863,11.188667155954105
9.952613238529798,-0.8230930972690182,3.3747747238095473,11.534527123597638,12.041818081959226
9.97262407985143,-1.6224942908122126,2.3664620678342025,12.247655722360745,12.581923329173465
9.992634921173064,-2.6496617298592997,2.520040119641985,10.972728385545132,11.566314643731157
10.012645762494696,-2.60880144234111,2.749117862854759,9.814844975140133,10.523525670843979
10.03265660381633,-1.8670594704051817,2.921119786432326,9.234471410053926,9.861972870912338
10.052667445137962,-1.1231053199514092,3.5762543733372105,7.859565204390567,8.70699740268257
10.072678286459594,-0.1405806844887184,3.543283077941373,6.766911569109959,7.6380524289502585
10.092689127781227,-0.4368697395288886,3.8432894241620255,6.292504368320843,7.385500158384429
10.11269996910286,-1.2222578388136403,3.7403398272730497,7.209040293924761,8.215189936259714
10.132710810424491,-2.1365524664433746,3.6541681506930694,7.783400164813308,8.858116150821216
10.152721651746125,-2.319096414379466,3.4771805074981987,7.864906596143125,8.90919769302159
10.172732493067757,-2.0144432269433428,3.566798565357997,8.052056167039574,9.031689178304125
10.192743334389391,-1.4886545072446984,3.719699046827526,8.248068031060415,9.171222496145768
10.212754175711023,-1.4132221293136928,3.8023460088130006,8.244662998419653,9.187500361357356
10.232765017032655,-1.6010974899815944,3.7678051833333015,8.22180584230371,9.186011954130691
10.252775858354289,-1.6366049169872028,3.9852215089840355,8.35703002489747,9.400531821405139
10.27278669967592,-1.3629526532983942,4.2782821683436065,8.472920619871728,9.590956167504274
10.292797540997553,-1.2041365064151,4.546425934403169,8.353419243576015,9.584225400383348
10.312808382319187,-1.0163226342115985,4.64266453310545,8.397757045789389,9.651589426640298
10.332819223640819,-1.0051193716188023,4.959899211650132,8.628590041395384,10.00052772102175
10.35283006496245,-0.7669419968460143,5.059423018224293,8.83540134295112,10.212726501820159
10.372840906284084,-0.7584646860253912,5.269001271718933,8.896382839494239,10.365449587152128
10.392851747605716,-0.7740170849832042,5.273483414852892,9.185315928887123,10.623078056870574
10.41286258892735,-0.8626176575641124,5.114300793721927,9.771500830313919,11.060049692592795
10.432873430248982,-1.0506029693592727,4.855554211441685,10.445960782534504,11.569325946794327
10.452884271570614,-1.4353510451152085,4.7697611660239305,11.041386628238543,12.111538515248714
10.472895112892248,-1.6427304179730766,4.612117713782973,10.332405162621198,11.435621373803622
10.49290595421388,-2.0484042960248665,4.527939337749077,9.254840342527805,10.499800515146116
10.512916795535512,-2.2338466177869427,4.521745239534082,9.154358090046856,10.460568159699452
10.532927636857146,-2.3412219043404283,4.672375175036706,9.487431015264068,10.818729808692202
10.552938478178778,-1.645335764925919,4.2777237899843366,10.635725399147415,11.59417510574399
10.572949319500411,-1.3307099208047046,3.8917331134943183,11.561656434445945,12.26785815103533
10.592960160822043,-1.445458255015639,3.1767272381026572,11.048568319902447,11.584700397253233
10.612971002143675,-1.7877278411810442,2.824163028744487,9.095492151402222,9.70130783134497
10.63298184346531,-1.9556969772997441,2.8200199478386057,8.050840208118474,8.74575646209661
10.652992684786941,-1.9958764403202336,2.907533982578707,8.304786516338416,9.028656127195072
10.673003526108573,-2.22120385694206,3.1538700678620617,8.297041523105714,9.145740888154167
10.693014367430207,-1.5563877360744203,3.015835058552131,8.4988079593936,9.150107289156013
10.713025208751839,-1.3179067490317884,3.071803235857583,8.345524948852558,8.992098051322746
10.733036050073471,-1.2158745312973782,3.089606227909571,8.432025147006021,9.060360668276575
10.753046891395105,-1.5603125745714252,3.2851176201520964,8.689861783804586,9.420543151568346
10.773057732716737,-1.7099242190455046,3.4523376339573795,8.820332846952004,9.62566986335776
10.79306857403837,-1.7145395676306348,3.50888654390383,7.9572507734694,8.8621557411574
10.813079415360002,-1.5326563103873447,3.5803595225581506,7.337107583173977,8.309038603636399
10.833090256681635,-1.317681085791125,3.91594435469693,7.423797933590181,8.494325308371785
10.853101098003268,-1.0985327533722888,4.040087495876173,7.617659461856209,8.69464953967039
10.8731119393249,-1.4264939185884349,4.240939804488495,7.524802892007415,8.752710323933202
10.893122780646532,-1.499791654087493,4.142867921916174,7.937438773641194,9.080407592335636
10.913133621968166,-1.6876945747552459,4.198192123496727,8.377201424986028,9.519420360151319
10.933144463289798,-1.713110765599583,4.316045928018364,8.792654483904641,9.94503976374857
10.953155304611432,-1.6777735353306318,4.45641333988345,8.486676970829576,9.729817895149454
10.973166145933064,-1.5769558637538375,4.631391294330845,8.202980580894474,9.552632664575345
10.993176987254696,-1.5095979551241732,4.860855532920733,8.556205057165778,9.954530804489396
11.01318782857633,-1.5422699289342974,4.969095929046723,8.88054038317036,10.293784319889971
11.033198669897962,-1.517845655191846,4.956371101507787,9.074131596675112,10.449601689175388
11.053209511219594,-1.5501465076190446,4.92523296047045,9.432145703546443,10.753853971020096
11.073220352541227,-1.8092257046817188,5.001340999559877,9.98792470940606,11.314606715676401
11.09323119386286,-1.803959249049076,5.024173956687883,10.45671813031528,11.741999257797263
11.113242035184493,-1.5083998658587026,5.004404232795956,10.522519898784712,11.746799669007645
11.133252876506125,-1.665835531718722,5.155981295154394,9.741642116870443,11.14910073584299
11.153263717827757,-1.5652795273183238,5.0376102296647005,9.331800092927272,10.721656592477522
11.173274559149391,-1.3430348447640585,5.219732105003598,9.10488462509682,10.577047428953327
11.193285400471023,-0.6212307051571082,5.048569686827149,9.681936474311927,10.950343333761062
11.213296241792655,0.15797604727245976,4.557702567044464,10.713378799206168,11.629628757480239
11.233307083114289,-0.22007194516362755,4.2652854397623745,10.926705025675005,11.74282573497852
11.25331792443592,-0.5982727278163948,3.053601906048157,11.783344592944372,12.170350490257576
11.273328765757553,-1.6110762343959026,2.504709815158165,11.186103801022366,11.596359082574685
11.293339607079186,-1.9796455657274583,2.7534004948545863,9.739604782572624,10.299771944862536
11.313350448400818,-0.8983424744163777,2.6759253884091794,8.86135418814467,9.312324837467326
11.333361289722452,-0.21619771625022288,3.2370035900210126,7.8928829318376525,8.523779215761898
11.353372131044084,0.24641310006905268,3.5208392841798895,6.762776086472102,7.638283593590086
11.373382972365716,0.37317302871717384,3.4195630113011446,5.647270095894864,6.604031501763897
11.39339381368735,-0.47873585509255273,3.501072090750249,5.274039444664548,6.3514608667682495
11.413404655008982,-1.401121216653938,3.5676023650968456,6.171053280418383,7.264765295628154
11.433415496330614,-2.0090477654248495,3.663670969702698,6.866175745725651,8.037044637763563
11.453426337652248,-2.0814086727011367,3.763898402241785,7.153236909763544,8.347827467100231
11.47343717897388,-2.007526152470189,3.9611360063336676,7.885582768769771,9.04911921392468
11.493448020295514,-1.9858681173635697,4.004085593079811,8.318095394043471,9.443615949642583
11.513458861617146,-2.156884540576645,4.160345149291295,8.624655642443765,9.814845497536506
11.533469702938778,-2.0313104121457024,4.302424048423931,8.757820664317741,9.967340209210112
11.553480544260411,-1.8406058723194456,4.495491416886673,8.863255380493552,10.106834779863906
11.573491385582043,-1.5459163104876703,4.729871597861094,8.661563566247404,9.990140008978358
11.593502226903675,-1.30427698238783,4.922526929959845,8.008923447461928,9.489448982891775
11.61351306822531,-1.0882450931476206,4.986434926355812,7.869799441697185,9.381377085627651
11.633523909546941,-1.131371595028536,4.978279365504122,8.228790311486563,9.683177006713043
11.653534750868573,-1.2256576001510866,4.895413678795179,8.466735489596715,9.857041314281929
11.673545592190207,-1.232185717503317,4.856947023246007,8.376074673859684,9.75996745035995
11.693556433511839,-1.1950467466110786,4.854088427954811,9.04263661970484,10.332293959244744
11.713567274833473,-1.1073358877003379,4.918113535701709,10.125711384284193,11.312565423837734
11.733578116155105,-0.9807557994379009,4.910569381977057,10.628983936324742,11.748149021387114
11.753588957476737,-0.8047703702346726,4.6351636971979,10.216088933351921,11.248205732167719
11.77359979879837,-1.4518102121323258,4.467230018969966,9.765224920323659,10.840679753855403
11.793610640120002,-2.5715160847720044,4.787086783273601,8.944942180914968,10.451772537182224
11.813621481441634,-2.4568305583770527,4.835928392934463,9.856419089850345,11.26656984215556
11.833632322763268,-2.05183495127777,4.746656291204797,11.420943773309041,12.52740734138071
11.8536431640849,-1.6368476722187597,4.5209854701978776,12.098909566370903,13.027973647509896
11.873654005406534,-1.665170842493055,3.7415001460401665,12.558608490742357,13.210054509774489
11.893664846728166,-1.7081595071760114,3.066120380363036,12.187243607030835,12.679324060054954
11.913675688049798,-2.3448041539847964,3.1684251398623084,11.136090585653314,11.825482721673213
11.933686529371432,-2.4671618474497254,3.484191572605245,10.261556810255332,11.107235109441964
11.953697370693064,-2.5188830941167812,3.7505043400239595,9.566807080036924,10.589700417171048
11.973708212014696,-2.4441129964366803,3.845071681845682,8.051494529732691,9.240975574374502
11.99371905333633,-1.8209961648947561,3.471443409395661,7.804605868794733,8.739267018823659
12.013729894657962,-1.4957673839774954,3.3547983952665357,8.082303887235941,8.875138609230628
12.033740735979594,-1.600655974385414,2.9756343380941397,8.293298880877815,8.956812451273647
12.053751577301227,-1.9952808208946151,2.7630813217504335,7.932036494458669,8.63139731265756
12.07376241862286,-2.202891588366337,2.6491058440731625,7.770663493709538,8.502083661666994
12.093773259944493,-2.226672552551904,2.696685846978389,7.3043467898617225,8.096336814136032
12.113784101266125,-2.0606390829978913,2.7879719546578334,7.062257397529647,7.8698043731871214
12.133794942587757,-1.7732367205482966,2.9807929633548067,6.872461059655126,7.695634803264483
12.153805783909391,-1.414103341245726,3.2852762456663167,6.865676265731095,7.744662820738584
12.173816625231023,-1.0436377053935022,3.593895142274699,6.9823766066612905,7.919192162680336
12.193827466552655,-1.0750617187686677,4.062864553461513,7.0869252391274005,8.24453570489629
12.213838307874289,-1.1134690883006435,4.289106329780525,7.3483084276019115,8.576708140642406
12.23384914919592,-1.210394795109669,4.367107766167137,7.718773116313073,8.955019858905619
12.253859990517554,-1.471266503230171,4.527637502680589,8.019590365058656,9.321899546552407
12.273870831839186,-1.6610938702698563,4.63447605059759,8.542911974503145,9.864066234915487
12.293881673160818,-1.775529882207155,4.781326609588571,8.752794227327163,10.12628839562448
12.313892514482452,-1.774037293612829,4.807246421430464,9.171782140523709,10.509866872805407
12.333903355804084,-1.8690851722285444,4.945933884634537,9.764067762070034,11.100300059813963
12.353914197125716,-1.8875892797234248,4.963338053929556,9.944609776457458,11.277139089927289
12.37392503844735,-1.9040354163092195,5.0994524009226145,9.762542837257447,11.173475214949365
12.393935879768982,-1.9735632354836214,5.124107415346045,9.729838092935871,11.177121209211151
12.413946721090614,-2.0131818483430637,5.209644285607902,9.726607973747626,11.211223592214244
12.433957562412248,-2.056455818871281,5.261272044087814,9.51627388975208,11.072156569787564
12.45396840373388,-1.533683146615435,5.219101683740932,8.915641006804806,10.438158214960765
12.473979245055514,-1.1931273278735635,5.416895941141549,8.46940233199731,10.134947850354669
12.493990086377146,-0.7392661247735696,5.69266575760615,8.307085586721684,10.086704913214255
12.514000927698778,-0.4193984475992084,5.839258856692805,8.129129660684605,10.033302142336646
12.534011769020411,0.1645872911999325,5.627548535114466,8.976012299067298,10.584128155194374
12.554022610342043,-0.25560519242531954,4.684039653363118,11.06292540415229,12.025867541883262
12.574033451663675,-1.3749168831860326,3.3094974908742913,11.956503438090785,12.47963494175486
12.59404429298531,-1.9308786788453793,2.1072984534995043,12.32769429207328,12.651886160680728
12.614055134306941,-2.6745943291944947,2.5659236861974444,10.689977317907065,11.330720734067146
12.634065975628575,-1.6451724852385368,2.7630238585488653,9.056380684229945,9.606497074726125
12.654076816950207,-1.0224742167752694,3.438928577250377,7.361567069684755,8.201536140085434
12.674087658271839,-0.5408680194105724,3.8993556670990324,6.004434298167791,7.170276857790532
12.694098499593473,-0.23343155319617626,3.6554271859558707,5.962769593699469,7.001212596303186
12.714109340915105,-1.2343448659375336,3.7564478558051606,6.734332497939427,7.805919313805493
12.734120182236737,-1.6491446673866232,3.717484569160209,7.272931983684045,8.337979954909375
12.75413102355837,-1.7179306540121322,3.7916335301180975,7.4689210670857555,8.545965015355204
12.774141864880002,-1.7249446545468625,3.904515082453627,7.665108261605838,8.77774185835334
12.794152706201636,-1.6789945126757468,3.975038905478596,7.94572666716896,9.03798845871234
12.814163547523268,-1.5204999925482514,3.999327973302914,7.9466741668228265,9.02915012863522
12.8341743888449,-1.3633879926682986,4.137856263297268,7.87965794784744,9.000544819757074
12.854185230166534,-1.4703879750361633,4.408427978925504,8.000979855069849,9.256610676147675
12.874196071488166,-1.3615114199725586,4.547091980255481,8.050515440754024,9.342909938623873
12.894206912809798,-1.2823164044427262,4.664037005771474,8.264133549698073,9.578226449814144
12.914217754131432,-1.11922624903485,4.898434156395,8.503055827801369,9.874327163901004
12.934228595453064,-0.9839216686616974,5.215822287454379,8.805857279901005,10.284205961402781
12.954239436774696,-0.9218174649405775,5.508057409253374,9.314295941143675,10.858309564104209
12.97425027809633,-0.9437250919369539,5.616839752495302,9.495859991116635,11.074990152779575
12.994261119417962,-0.6506899787109148,5.487877125997945,9.897041595932563,11.332776182245714
13.014271960739595,-0.6574894278413155,5.36909382801714,10.56588788972329,11.873811374370373
13.034282802061227,-0.7612558856494636,5.259023810116671,10.751653144433948,11.987791208219859
13.05429364338286,-1.2479006064813414,5.070234483107038,10.153622677541989,11.425128735430322
13.074304484704493,-1.9801414449674997,4.799369325850991,8.932730621673958,10.327207225900136
13.094315326026125,-2.5344523753794195,5.115245093786695,8.901945116783132,10.57536135719134
13.114326167347757,-2.2046790543627295,5.322812169226047,9.58236045867648,11.198767210581838
13.134337008669391,-1.129304913353007,4.823470641162998,11.668329849513665,12.655644562554986
13.154347849991023,-1.3269860963564222,4.3455176919573555,11.751932361308297,12.61841111799949
13.174358691312657,-1.2840605952181703,2.965905807678239,10.594161841937124,11.054735971151946
13.194369532634289,-2.528165257671419,2.967567924394695,8.768771029201327,9.612909055044884
13.21438037395592,-2.3469290691079383,2.8227449875443438,8.243234026202149,9.01794099890945
13.234391215277554,-2.5186838460557324,3.4106191008373448,8.000321721001319,9.059240815411117
13.254402056599186,-1.9721066569846952,3.728519202562999,8.377090498940381,9.384476668109032
13.274412897920818,-1.2432789678872376,3.5270112144782004,8.649374398914697,9.419780212899399
13.294423739242452,-1.273592073794695,3.5372377015218053,8.136046859329495,8.962507837135433
13.314434580564084,-1.3582376890350267,3.073577599627616,8.820647723664955,9.440333958452761
13.334445421885716,-2.1100490602986,2.9356261113892956,9.010875818362514,9.71920189321602
13.35445626320735,-2.619978433689845,3.093303906866254,7.902142674462591,8.87217118190087
13.374467104528982,-2.2044415995304614,3.0263362265689953,7.3162879877251505,8.224229357310692
13.394477945850616,-2.0901457853381036,3.292242967539155,7.040322619393465,8.044020358389735
13.414488787172248,-1.9608119135092603,3.3340825205420423,7.273316761541349,8.240751045572697
13.43449962849388,-1.842539137415006,3.533076964081022,7.640825633766809,8.616839358494708
13.454510469815514,-1.347797418908915,3.7391823371189985,7.863492598223061,8.810120077984308
13.474521311137146,-1.4895625942842599,4.2788035542295395,7.7272290037254585,8.957906301743778
13.494532152458778,-1.383281531484763,4.435794757510784,7.801432131234065,9.079878895257881
13.514542993780411,-1.4605277097176395,4.597500649187087,7.7764959340886035,9.152031080888683
13.534553835102043,-1.4097309099590742,4.7305652445214434,7.765635921839408,9.200665797401264
13.554564676423677,-1.5502164901611797,4.950351964096438,7.638567582490103,9.23446470061807
13.57457551774531,-1.5725083094043568,5.07101831992284,7.80898361692342,9.444405856246762
13.594586359066941,-1.516965973483292,5.072378273696599,8.733865079911222,10.211892254461686
13.614597200388575,-1.7020344059325956,5.139215419024406,9.347828159599482,10.803258472860424
13.634608041710207,-1.8817103750713724,5.255231565340643,9.982405768127595,11.436733118906448
13.654618883031839,-1.82279385688903,5.398853320606615,10.255053359679428,11.731785697602401
13.674629724353473,-1.5758477646314932,5.462629283146905,10.244655492953019,11.718173561991964
13.694640565675105,-1.4052779543540035,5.50047212393332,9.730998150891912,11.263306617258744
13.714651406996737,-1.3751986452169462,5.4502252573116525,9.345291228838384,10.910425809706483
13.73466224831837,-1.5084654705498988,5.603099444540815,8.94881611137111,10.65822177823798
13.754673089640002,-1.2621384404497724,5.331693127597935,9.39422226800369,10.881367715426967
13.774683930961636,-0.8886472165926169,4.811374454612463,9.67800250621864,10.840567335604394
13.794694772283268,-1.0320086471759213,4.258288044297922,10.879094666262333,11.730909105129632
13.8147056136049,-1.3860707126790792,3.567079127304269,11.14140452340687,11.780523808576847
13.834716454926534,-1.4164643546416353,2.5983163498385418,11.747859278261421,12.108132376618704
13.854727296248166,-2.1920018807011536,2.7490235192127406,10.857124159240373,11.424316743949088
13.874738137569798,-1.5992200148466569,3.045575031391558,9.87921280573899,10.460054664723204
13.894748978891432,-0.5100448954070338,3.2635664375730356,9.305283944035594,9.876298899832852
13.914759820213064,-0.12194820483128921,3.813899361676227,7.61255991657508,8.508943967728086
13.934770661534698,0.3659237215029886,3.6635668294844983,7.037326969176129,7.945715949200059
13.95478150285633,-0.03286132756736612,3.662847443238153,6.754686595043007,7.680755496204673
13.974792344177962,-0.813271303459814,3.6516772961004933,7.132909718531515,8.058791553754595
13.994803185499595,-1.4988981902610907,3.7295337321028987,7.531760898925581,8.531947777357583
14.014814026821227,-1.7145164197178662,3.718526708370801,7.644311575766706,8.677723220935984
14.03482486814286,-1.6333048774233412,3.7439537535710787,7.64904518442571,8.665893880620288
14.054835709464493,-1.5936784336278191,3.8058887791139773,7.771544192733963,8.80413889813402
14.074846550786125,-1.7490824479828406,3.7859457249458797,7.859735493191298,8.892750340491123
14.094857392107759,-2.0556324993177655,3.922750220280429,7.905093157372404,9.067024233026858
14.114868233429391,-1.8998477987771596,4.145808025311167,7.578063638742865,8.838215673808811
14.134879074751023,-1.4572135535272306,4.516468961167968,7.883875646255806,9.208373632144303
14.154889916072657,-1.1001235015681377,4.712725194250018,8.263096711115443,9.570170763040945
14.174900757394289,-1.1766153384516373,4.8140884812047,8.585686162305494,9.918573123886507
14.19491159871592,-1.2410366317886614,4.88060926189007,8.699611822995395,10.047369679625842
14.214922440037554,-1.1285028176192333,5.1434842418637094,8.619266298089478,10.104443804781642
14.234933281359186,-0.5928572870667648,5.308305805839971,8.715252211067563,10.218259088227786
14.254944122680818,-0.41947020390562556,5.512912539639876,8.435300234437578,10.095642211225686
14.274954964002452,-0.540140633564031,5.630597039356929,7.921806790502748,9.726810580845722
14.294965805324084,-0.28849239834583423,5.250960295557517,8.212963818908934,9.756533033030784
14.314976646645718,-0.82136522432711,5.155623407695252,9.22814097153562,10.597526169516522
14.33498748796735,-1.4391783646880125,5.021698277087582,10.06907049356093,11.350672388922158
14.354998329288982,-1.7425739280895414,4.895310300330918,10.55212913185367,11.753171935579035
14.375009170610616,-1.6859884980660342,5.128274661056702,10.231587323273086,11.583369003023558
14.395020011932248,-1.7087485344443467,5.271507610746534,9.068697511298872,10.60821216532174
14.41503085325388,-2.0433244028297866,5.4379664089492055,8.91195863627705,10.665881171057963
14.435041694575514,-2.8016086207112227,5.411740631068774,8.976431122800234,10.818725388884436
14.455052535897146,-1.7608073693141664,4.431777813465253,11.141560761133498,12.125647459487137
14.47506337721878,-1.9051255249008143,4.398150209295603,12.935600513164214,13.801948206488396
14.495074218540411,-1.4981898808372673,2.7849917810356053,12.84134988762493,13.203970153306718
14.515085059862043,-2.1376490739549663,2.457181766964034,10.410768750863049,10.941665725671877
14.535095901183677,-2.222172227225654,2.514737033284018,8.962072854592911,9.559925243547594
14.55510674250531,-1.6211498279831573,2.6327076371423628,8.718472659359657,9.262642984834105
14.575117583826941,-1.6467107650129937,3.5897589929794154,7.6501792221131675,8.589446682675355
14.595128425148575,-0.5416751363781035,3.544712481167,7.337984512702939,8.180085094193895
14.615139266470207,-0.2322992242243765,3.4215668208974335,7.4984715947058005,8.240034128892901
14.635150107791839,-0.7545338251088711,3.212005333066397,7.358308081798842,8.068657517210205
14.655160949113473,-1.6478887536899707,3.1130032187906465,7.553628673390158,8.330260507563732
14.675171790435105,-2.299312819247045,3.1414071238999624,7.855601784076646,8.772253179895783
14.695182631756738,-2.293286745198266,3.169376551964649,7.506027363473745,8.4602542885088
14.71519347307837,-1.743847502531636,3.421477350562769,7.332055143106969,8.280597827452645
14.735204314400002,-1.3705719095812008,3.7661552062277703,7.527324450338072,8.5246629515176
14.755215155721636,-1.3046433045219845,4.039938507427263,7.532280366884112,8.648876633506847
14.775225997043268,-1.3458369456074435,4.259097562307197,7.864967290610051,9.042454355729822
14.7952368383649,-1.3309278958382353,4.543605957654359,8.206336134535055,9.476540226496436
14.815247679686534,-1.1983385877911257,4.856262800120467,8.485513778339426,9.84785954420078
14.835258521008166,-1.0828371067553162,5.018189899147873,8.29510592869912,9.757277401912846
14.8552693623298,-0.9589336673897425,4.993337499015841,7.831573361633119,9.337685125198554
14.875280203651432,-1.4367356585569158,5.385147655925913,7.538836448254425,9.374177384152784
14.895291044973064,-1.5458114266879992,5.333622485362118,7.930793341210991,9.682636123407898
14.915301886294698,-1.5328100172435069,5.292097664639659,8.568098874356386,10.186872672420574
14.93531272761633,-1.4880589178087036,5.205609822165026,9.271663924144269,10.735903411671066
14.955323568937962,-1.5030286262706203,5.12282035738171,10.159282962902084,11.47910699346483
14.975334410259595,-1.7092155588475457,5.246238875648046,10.716523058060561,12.050318245857662
14.995345251581227,-1.808734448421928,5.276665812705859,10.361757514416833,11.771718140511657
15.01535609290286,-1.8037587096325987,5.261111053436959,9.762284885771924,11.23147222318924
15.035366934224493,-1.8779737982137084,5.457507363661625,9.362900449475342,11.00285583688111
15.055377775546125,-1.585656987278613,5.422959492362309,9.33550491008082,10.908915865778608
15.075388616867759,-1.16919340612688,5.418581407984416,9.334286984712469,10.86065427139579
15.09539945818939,-0.9660272182299376,5.280590778997787,8.70691563693226,10.223644300338213
15.115410299511023,-0.4031961291720767,4.69763623407096,9.755449081902059,10.839473652801432
15.135421140832657,-0.9949551634921647,4.381552584262297,11.24014778666171,12.103988013066855
15.155431982154289,-1.6357530891766232,3.0386572199363022,12.638474940116035,13.099943203110406
15.17544282347592,-2.2609636518594125,2.3026627203734664,11.535362705589222,11.988849070542098
15.195453664797554,-2.570947662312648,2.7590819680332106,9.202630339341994,9.93776710627094
15.215464506119186,-1.2826124150069909,2.5777584275372694,8.682753315902048,9.147105148241952
15.23547534744082,-1.0267949215885501,3.4312625829002164,7.163757614961824,8.007692996149343
15.255486188762452,-0.3976032594237509,3.6900721696146226,6.1876664670718995,7.221625666822536
15.275497030084084,0.08987688435236121,3.631848503961971,5.842176862464052,6.873036002008003
15.295507871405718,-0.3700546730129323,3.598304503951246,6.455333986643592,7.406302193954662
15.31551871272735,-1.2146207136434863,3.554284027254771,7.29830656389776,8.20254873000305
15.335529554048982,-1.8861912166175536,3.4372610258975778,7.928130762736434,8.850108513437986
15.355540395370616,-2.276260768269645,3.5320372805432685,8.228668720362677,9.233905656377928
15.375551236692248,-1.8209284914863197,3.677143906090348,8.343340409229516,9.302370750980435
15.395562078013882,-1.3100802170491066,3.999615301367432,8.251146239816158,9.258969420994227
15.415572919335514,-1.23660459305462,4.171378862572474,7.897951662197981,9.020854933168064
15.435583760657146,-1.4135169352050159,4.327054485020744,7.721004305606776,8.958736372082816
15.45559460197878,-1.5288183236318693,4.557374462909601,7.9125695841178585,9.262952143969457
15.475605443300411,-1.3963641779041942,4.851756120498894,7.92877385183787,9.394900930152426
15.495616284622043,-0.9813233301569796,5.064804891830712,8.195343755844657,9.689374492896052
15.515627125943677,-1.0005128153425396,5.5632970922779785,8.248780176563857,9.994907468662374
15.535637967265309,-0.8534746433039198,5.701974535772716,8.449563104986987,10.234402913047543
15.555648808586941,-0.7434590714358185,5.839751079066367,8.739401128204326,10.532177921421875
15.575659649908575,-0.7928705373468797,5.932930310276479,8.822211833812355,10.666090617223356
15.595670491230207,-0.8720257754242192,5.81242532104632,9.347923911534991,11.038768142041935
15.61568133255184,-1.0043365628609144,5.740124189341659,10.254231349095571,11.796662469199346
15.635692173873473,-0.8630447124013194,5.788049621087495,10.574585471007785,12.084777455003708
15.655703015195105,-0.6305908928469748,5.402702618266992,10.614504699529506,11.92614815386848
15.675713856516738,-1.4826134126496031,5.356375537097052,9.384614505342922,10.905430758304172
15.69572469783837,-2.030951304696524,5.213678744825309,8.944147504529937,10.556846567425513
15.715735539160002,-2.1053531222754307,5.282348079892927,8.993015920991647,10.6303085449415
15.735746380481636,-2.3101621220381925,5.118548390070042,9.242308181383118,10.828309129857708
15.755757221803268,-2.0592123835806304,4.766885612243692,9.96201516060473,11.220598231514925
15.775768063124902,-0.9519262226027141,4.227368471473579,11.478015763143112,12.282801718725407
15.795778904446534,-0.3576524568946822,3.127944913506809,11.274415719683178,11.698808784233833
15.815789745768166,-1.1363049079496867,2.4941277146196774,9.814488328454885,10.195627474085112
15.8358005870898,-2.443133702970169,2.5005214694024276,9.208774869052466,9.847071320962876
15.855811428411432,-2.584505751444809,2.5635824932846294,8.816108563691222,9.542706132293432
15.875822269733064,-2.4306228355031942,3.2558951268319576,8.907776148895332,9.787583866723013
15.895833111054698,-1.265793038966855,3.553970492367919,8.590144633934202,9.388105781130646
15.91584395237633,-0.600361492965101,3.3266840400422018,8.465472004186614,9.11119798834699
15.935854793697962,-1.2662792050078318,3.285716705151463,8.336583354563974,9.05081404371307
15.955865635019595,-1.7505315328576194,3.0455965798375626,8.20579107549354,8.926222926328531
15.975876476341227,-2.077994127484762,3.2144005459374823,7.966289399432106,8.837032696682108
15.995887317662861,-1.4953941526997483,3.1440800073579855,7.54885106103346,8.315213239133008
16.01589815898449,-1.1960008934586253,3.5674370500865127,7.095977273087868,8.033601286296994
16.035909000306127,-0.8620199865383107,3.8751464233128443,6.778926004492678,7.8553730828931725
16.05591984162776,-0.6426963149147408,4.021711165014133,7.022242252364317,8.11827189836469
16.07593068294939,-0.8336358714512295,4.390320946856738,7.4455494608508115,8.68274068099231
16.095941524271023,-0.8344248646647651,4.571195680488608,8.018609909240018,9.268222285167695
16.115952365592655,-0.839023496157018,4.691333214612721,8.215848927622316,9.497789125390458
16.13596320691429,-0.7965466988693928,4.721640130485578,8.294564590250667,9.577821876522775
16.155974048235922,-1.0920192647799236,4.833574077015056,8.033626095639834,9.437323454284316
16.175984889557554,-1.2007063909633116,4.805870940484896,7.912079390358299,9.338283975812843
16.195995730879186,-1.522170894429622,5.109172912015105,7.820481200031551,9.460207341567829
16.21600657220082,-1.4346460708924271,5.076122344251808,8.261346555625478,9.805655000932706
16.236017413522454,-1.3683781352460165,5.157643556525842,8.744461252763527,10.241129707588046
16.256028254844086,-1.3868444768141024,5.111440211632041,9.27862552373309,10.68581118217613
16.276039096165718,-1.5280960430550743,5.230133771055171,9.746299868823534,11.164384247960376
16.29604993748735,-1.564885260873555,5.364876520263983,10.273621859840176,11.696489935792181
16.316060778808982,-1.7183452273743767,5.512574197869131,10.152743210956995,11.67777510359407
16.336071620130614,-1.4611365045002997,5.4755649936633795,10.017765709574896,11.511359125125459
16.35608246145225,-1.4131000157180864,5.7226793091192425,9.617196317858006,11.276993481136655
16.37609330277388,-1.1198665391262062,5.685890541713386,9.369772728139433,11.022484084819286
16.396104144095514,-0.6873593268466589,5.71869108339926,9.28666670465804,10.926215997725969
16.416114985417146,-0.3114361864528492,5.662126460018185,9.2335519359332,10.839465869495159
16.436125826738778,-0.40753061869707236,4.980813662296261,10.110565247762157,11.278169065069271
16.456136668060413,-0.9461756022267518,4.439232354463649,10.647501208078946,11.576723484477137
16.476147509382045,-0.9649392191852643,3.305885554900934,12.127481344892072,12.607003005103818
16.496158350703677,-1.6489618210517596,2.5810354193772804,12.076818415864429,12.457324058245431
16.51616919202531,-2.1685720712847454,2.6007754733403803,9.745377347106265,10.318533218911398
16.53618003334694,-1.5667056520165117,2.6940188828594054,8.68484227077226,9.229107390394812
16.556190874668573,-0.8342235783016974,3.2958150919716513,7.726523286267705,8.443899250326112
16.57620171599021,-0.636807694601444,3.9795662016256013,6.836785815070758,7.93501330601119
16.59621255731184,-0.25821065573374086,3.769511177068315,6.229532723549209,7.283327283037608
16.616223398633473,-0.8224460986198288,3.670035428220257,6.074734467241186,7.146231402530481
16.636234239955105,-1.5251812066313637,3.64913835745448,6.61202400928207,7.70473976799905
16.656245081276737,-1.9598672361033223,3.7787141035448526,7.22671672819109,8.386629117084198
16.676255922598372,-1.7668071751966539,3.791562209186014,7.462813672369111,8.555884902417276
16.696266763920004,-1.528877876028197,3.91903741853199,7.776320487765248,8.84137044711833
16.716277605241636,-1.4346581643223042,3.9906511345040316,8.083488947141857,9.128086682634972
16.736288446563268,-1.471983800075603,4.0992051551111635,8.512419792384588,9.562727771011389
16.7562992878849,-1.3734911254823456,4.299009337091923,8.494077740234621,9.6175500456794
16.776310129206532,-0.9804616083139776,4.47588149905538,8.40018875247847,9.569798517105665
16.796320970528168,-0.7917607284654475,4.651678644948493,8.30988700821076,9.554640069986586
16.8163318118498,-0.7659560407210929,4.789273209267966,8.21834473026046,9.545075109050208
16.83634265317143,-0.7314423119160045,5.046537089656575,8.043556984024368,9.520036188327344
16.856353494493064,-0.3165861672882675,5.300076584894033,8.377150479608531,9.922342416754418
16.876364335814696,-0.015134013032874793,5.714848424242991,8.606929264033917,10.32875400882429
16.89637517713633,-0.018007087540656035,6.059594769207351,8.587714756589094,10.513589795837435
16.916386018457963,-0.3479495843697675,5.8559678402027355,8.86914282232267,10.630688951466771
16.936396859779595,-1.035710098078035,5.584685842553161,9.669971995179148,11.21733652518925
16.956407701101227,-1.316316474225847,5.461004529789795,10.109529608855498,11.562921927258069
16.97641854242286,-1.222415101506477,5.3457786883410945,9.986102109333958,11.39505929372181
16.996429383744495,-1.5030036157062001,5.300587110249534,8.95880962968368,10.513137924422168
17.016440225066127,-2.0208570114132556,5.403944792988019,8.70556248130512,10.454302128629124
17.03645106638776,-2.049681923628375,5.389257186735315,9.026649248828361,10.695758112523567
17.05646190770939,-1.7658728750628068,5.189630479262576,10.59454457725474,11.948528572834425
17.076472749031023,-1.5372246825268194,4.995700508174441,11.646579320253485,12.748302866889736
17.096483590352655,-0.8281737166476018,3.703614763023976,12.479118091821057,13.064304805934489
17.11649443167429,-1.150832283369507,2.583932187611945,11.750152592367659,12.0785723418594
17.136505272995922,-2.497433213447194,2.8068294802113916,9.728098837382161,10.424135641429757
17.156516114317554,-2.2798788557053467,2.6141710985183066,9.525202857336618,10.139495177606436
17.176526955639186,-2.561246338074343,3.3803666117144058,8.842060699673855,9.802058366513748
17.19653779696082,-1.961957532513881,3.729436739799995,8.052705525876691,9.09468133177131
17.216548638282454,-0.8518799943616338,3.651170078713672,7.913231006510776,8.7548835621544
17.236559479604086,-0.6479247156651564,3.6880338847524383,8.443819540416513,9.237774377956042
17.256570320925718,-1.0764365711706483,3.668399970028566,8.334648965096294,9.168230326547356
17.27658116224735,-1.5337831622555822,3.375430358840002,7.856892690335389,8.690069767727264
17.296592003568982,-1.8105480174846134,3.2928595031322834,7.51203055257069,8.396736165413964
17.316602844890614,-1.643611734784197,3.3083488511004684,7.443349168422787,8.31181078099215
17.33661368621225,-1.3176924198188058,3.4929892244884613,7.271818439504517,8.172806880953168
17.35662452753388,-0.9129567952476573,3.6307440553157733,7.155928290951529,8.076455624709117
17.376635368855514,-0.9160882934445973,3.867434742695567,6.727492998205949,7.812068742142847
17.396646210177146,-0.9015157625420573,3.9018988986023015,6.705188448166808,7.812697225716684
17.416657051498778,-1.0961414843780697,4.220616660845719,7.065522126107699,8.303052366119939
17.436667892820413,-1.1876601919990573,4.650738820218308,7.471611699920215,8.883481524051003
17.456678734142045,-1.0343004989126758,4.8080871401593965,7.56486226278988,9.021734249932036
17.476689575463677,-1.1444669292421616,5.000427881598019,7.504513505991475,9.092436634669664
17.49670041678531,-1.1753171011651957,5.163254853131064,7.901657448185947,9.510538297019437
17.51671125810694,-1.3547949531662413,5.357600412889499,8.269963664326285,9.949713578656647
17.536722099428573,-1.3183062183854644,5.294540236995523,9.067435110033937,10.579047883796429
17.55673294075021,-1.3913942108912356,5.403908113480466,9.831813886077565,11.308549670943712
17.57674378207184,-1.2363768706032752,5.295534955893343,10.149120685033328,11.510946625577434
17.596754623393473,-1.3693437436005913,5.325324398755944,10.246387266745378,11.630967280227305
17.616765464715105,-1.4763390102913434,5.375951420546179,10.017606492911257,11.462652183548055
17.636776306036737,-1.3401767248727754,5.526643110998278,9.886395766867023,11.407667595932232
17.656787147358372,-0.78660466120431,5.788929490220294,10.087645360251882,11.655974631028478
17.676797988680004,-0.8039715501261364,6.057404206224876,9.367230281917928,11.180808019282003
17.696808830001636,-0.4793971875464086,5.587639449072639,10.12158490192401,11.580304311918768
17.716819671323268,0.20093251798557885,5.109714706526669,11.74875118563238,12.810068068113086
17.7368305126449,0.3753079139273415,3.8760174303268706,12.60215083561245,13.197825698101731
17.756841353966536,-0.605058029384263,2.7949441978533667,13.097283240606648,13.394646157432978
17.776852195288168,-2.1444156977320876,2.7377605122279514,10.626629100754663,11.195056747154721
17.7968630366098,-2.2090858768583677,2.6986416868372443,9.308572195999814,9.938926613713331
17.81687387793143,-1.967513435732488,3.199933942663304,8.308671574255667,9.127204397970408
17.836884719253064,-1.4278374234166489,4.05435425517819,6.665461869684086,7.91568067289815
17.856895560574696,0.23079026689422544,3.9355033323038944,6.060597546419522,7.239613238307925
17.87690640189633,0.907890362064544,3.6653092765154356,6.355067080618615,7.391602091842514
17.896917243217963,-0.09692845106029711,3.651567959634403,6.777903286128248,7.699614758918564
17.916928084539595,-1.349736867804732,3.3886296199859918,7.2521743348573855,8.116865177547771
17.936938925861227,-2.0986874591790228,3.3907468563616976,7.560468590093251,8.549356205084349
17.95694976718286,-2.076490095507091,3.718151370785379,7.853597599968603,8.933181204384036
17.976960608504495,-1.4691138762713443,3.8701215526497053,7.981776349813819,8.990578881780708
17.996971449826127,-1.197944869798042,4.021087413651538,7.6964290778511755,8.766653443551652
18.01698229114776,-1.0939165357010006,4.171023864113544,7.6008678930255,8.738438535468672
18.03699313246939,-1.1245900702217546,4.457241510995675,7.737779833746733,9.00021529306745
18.057003973791023,-0.9090666504860374,4.574821406079271,7.877692151964418,9.154816761288972
18.077014815112655,-0.8816399057177613,4.760462403072282,7.91735474006263,9.280505600992477
18.09702565643429,-0.8284973599334085,4.946062158933004,7.89944167984987,9.357133530565992
18.117036497755922,-0.8307801199558076,5.2119365498076915,8.084045713877675,9.65371468494159
18.137047339077554,-0.9204515623049784,5.421814815953618,8.549746196234427,10.166642284531202
18.157058180399186,-0.9550400120092446,5.723525523637733,8.874333656226614,10.60178797359755
18.17706902172082,-0.512406460044384,5.826751684407235,9.117435357968859,10.832712874361281
18.197079863042454,-0.2860202761748447,5.974758014825338,9.492129227840937,11.220386047451926
18.217090704364086,-0.369289618215663,5.817893690566445,10.411618886908476,11.930158738289197
18.237101545685718,-0.9786595441247831,5.78800449839115,11.056862164793797,12.521075975241354
18.25711238700735,-0.8645173183444649,5.181301948068863,11.248977956770531,12.408464132215277
18.277123228328982,-1.1688218603531488,4.96595270130793,10.063819528528938,11.295942277030774
18.297134069650618,-1.7407677851013619,4.918473455906286,9.18312403579642,10.553380451859862
18.31714491097225,-2.15646285675804,4.9104880031064475,8.687910457195208,10.219241852748157
18.33715575229388,-2.6082460016544307,5.063287308186226,8.699892790823023,10.39433950517066
18.357166593615514,-2.434523133908815,4.846247261037935,9.141008686311867,10.627584007099939
18.377177434937146,-1.6947585618755772,4.3690439840946,9.638779206339905,10.725314814515738
18.397188276258778,-1.1710602168380755,4.073405827006453,10.358561056038761,11.187416980127308
18.417199117580413,-1.1816987993782035,3.1145347390563005,10.451965165892851,10.975494096476762
18.437209958902045,-1.8693305563938358,2.735987356186711,9.270562528372698,9.845138900675858
18.457220800223677,-2.24243988787181,2.7549943566293167,8.788540379916453,9.47987820162987
18.47723164154531,-1.9945169373648306,2.865705324158529,8.89015995685537,9.549965835514032
18.49724248286694,-1.4644407758571818,3.1453289497315486,9.293978154312342,9.92325022600312
18.517253324188577,-1.0027732984820845,3.2140813920220412,9.18094872853829,9.775555044717544
18.53726416551021,-0.9972246880730014,3.2217578102986812,8.376902761784033,9.032880767439893
18.55727500683184,-1.2870489383649408,3.2848156915997944,7.844204045411197,8.599760053254787
18.577285848153473,-1.5177767989463382,3.5019629316644116,7.644145033865888,8.544795837921571
18.597296689475105,-1.388083905813017,3.5659441643041827,7.4658022300389595,8.389045921312944
18.617307530796737,-1.6018614284578934,4.007029851968047,6.923398640806886,8.156567930384641
18.637318372118372,-1.2544521064889236,4.147960991599411,6.879087988100293,8.13299446900802
18.657329213440004,-0.8787537325909471,4.294249206629543,7.056089205828775,8.304912738887158
18.677340054761636,-0.8215060827158286,4.40969593651372,7.338951751328797,8.60225695129188
18.697350896083268,-0.9756866417721927,4.60089650851954,7.786768954726377,9.096576183271043
18.7173617374049,-1.1898863981394838,4.667320190384134,8.238052021154601,9.54235624639005
18.737372578726536,-1.5435576192333387,4.869232431975921,8.271446631657298,9.722587497655933
18.757383420048168,-1.6466755989658024,4.934682243698952,8.041883469016202,9.577934043124635
18.7773942613698,-1.6680767242303542,5.199988627380319,8.204415229396652,9.856665109443034
18.79740510269143,-1.6547763658595684,5.463874269381386,8.576292740022433,10.30338073490259
18.817415944013064,-1.5699082251633587,5.366584204772587,8.866652218255961,10.481780926451451
18.837426785334696,-1.695781294455189,5.446031480139472,9.261615922082877,10.877935559067682
18.85743762665633,-1.4838621045693,5.395865879789088,9.636953302001691,11.142395086765148
18.877448467977963,-1.4399159276844873,5.483828645477105,9.97476757379253,11.475697134615915
18.897459309299595,-1.392339265648143,5.49440346632991,10.434576326236632,11.871839502704916
18.917470150621227,-1.3118408915771518,5.4010337510545385,9.446067913403917,10.961976688027013
18.93748099194286,-1.109217986779457,5.393680607540693,8.97397550310655,10.529937235045743
18.957491833264495,-0.861390669643905,5.5675078060544,8.840917311864924,10.485059761891678
18.977502674586127,-1.0305226722975236,5.712646038326274,8.251922626751206,10.08655197848418
18.99751351590776,-0.6737177282349485,5.400127900842248,7.999041122817375,9.681169289205044
19.01752435722939,-0.23438457325877834,5.1217462638112545,9.632167444597464,10.90512539282395
19.037535198551023,-0.46668070337819234,4.3093930529602735,10.94616115398636,11.784346353728298
19.05754603987266,-0.8851077510212513,3.077875000697339,11.666921134598326,12.080889429607593
19.07755688119429,-1.8530098359605904,2.8945667567409727,10.258214662642095,10.836916898989259
19.097567722515922,-1.7936535888705147,2.9962197512618056,9.215867850773767,9.853088632427836
19.117578563837554,-1.1113673384083087,3.2838399736223938,8.894923044168292,9.552528224156863
19.137589405159186,-0.6535934351674357,4.05540263103161,7.423151017296752,8.475865496553892
19.15760024648082,0.5419506793485868,3.9641956266944245,6.808846285874217,7.8993636394987785
19.177611087802454,0.3106339510906798,3.855728495462991,6.740833608091184,7.769003366965907
19.197621929124086,-0.8211350619338175,3.7559570056373204,7.319597298733053,8.274080982605351
19.217632770445718,-1.8332387916908641,3.7744854888247783,7.9123143820250315,8.948730316895139
19.23764361176735,-2.1073209044929055,3.7889300046151417,8.208922974394957,9.29069349592895
19.257654453088982,-2.0190479469058458,3.952565513680352,7.951233068082601,9.099281684370647
19.277665294410617,-1.3873775649559765,4.06438034046605,7.8221738390182916,8.928319951804694
19.29767613573225,-1.1772904845381966,4.375389450855737,7.928853464077031,9.128234171085426
19.31768697705388,-1.0471682017439476,4.613797494087052,8.045001187389635,9.337032246866801
19.337697818375513,-1.0656642599851442,4.766991242156156,7.713942854149553,9.125794405894395
19.357708659697145,-0.9229226307869611,5.000900992250229,7.8098526816535765,9.324735398851645
19.377719501018777,-0.7826051211708754,5.180012336447371,8.08350750297721,9.627726221797879
19.397730342340413,-0.8041574341458306,5.18770042520503,8.24343620563761,9.778158920343293
19.417741183662045,-0.8795022311731989,5.276591407173606,8.321500465304075,9.887222106841085
19.437752024983677,-0.8327208753326676,5.402701612227847,8.557129619839248,10.159887554630856
19.45776286630531,-0.9627650643806506,5.575141368616623,8.586672757282228,10.276030516404182
19.47777370762694,-0.6389797155645055,5.580986368887345,8.698388695181585,10.361338933971641
19.497784548948577,-0.5810435408427606,5.73378154693286,8.961225101721126,10.648710969372889
19.51779539027021,-0.6133240427389027,5.667252751666495,9.922087575665985,11.448531049018014
19.53780623159184,-0.8155587692640062,5.59242931735343,10.364954075829536,11.801398915772095
19.557817072913473,-0.8246081082032437,5.494133388899607,10.8134794948179,12.16089429346645
19.577827914235105,-1.1609329824059789,5.640549562612894,10.094089265858532,11.617419540188369
19.59783875555674,-1.2552273393195827,5.52669389865754,10.08050366523816,11.571226308756529
19.617849596878372,-1.7115675582290288,5.27525619115498,10.250309374152762,11.64640699938915
19.637860438200004,-2.0603670235327645,4.62981629509972,10.726148102154031,11.87370040056432
19.657871279521636,-1.835933238797666,4.339760390738374,11.314198545205066,12.245826820262739
19.677882120843268,-0.9990553753669812,3.363249792649525,12.090616953233814,12.592601629274952
19.6978929621649,-1.2596404829991485,3.0137394880133384,10.48772218459592,11.001685658370995
19.717903803486536,-1.8032581855887853,3.1096420422903983,8.541615214984201,9.250980483004707
19.737914644808168,-1.912375861047714,3.3474863971851594,7.557159953899431,8.507566135069169
19.7579254861298,-2.21795997528172,3.9835866969431177,6.718320337853983,8.090789188043686
19.77793632745143,-1.4087502341050868,3.8399825175791813,6.9811359984655095,8.107361809081068
19.797947168773064,-1.0536566774166745,3.70839951140102,7.4406301190434085,8.373516462491704
19.8179580100947,-1.198092356060529,3.5502364547689886,7.729618026837017,8.593886008148326
19.83796885141633,-1.5167877663918872,3.4176589596596423,8.107315415188145,8.925505425753245
19.857979692737963,-1.8727774249374007,3.3427916696376734,8.696691904114678,9.505598233878153
19.877990534059595,-1.9970166717883002,3.5563706480372543,8.50031954957944,9.425137618893281
19.898001375381227,-1.4255046960056301,3.672672053410281,8.019580693814955,8.937540867800333
19.91801221670286,-1.122901521601819,3.956593314786264,7.458465005700864,8.514514210486517
19.938023058024495,-1.0636575467343177,4.092059419634596,7.152458530198727,8.311914134292072
19.958033899346127,-1.1687993461445316,4.303835991606999,7.1798322735002555,8.448716143487099
19.97804474066776,-1.2712847189663563,4.4977980067858505,7.563641321722909,8.895016199424775
19.99805558198939,-1.2282992524394043,4.58426820191842,8.090549295266735,9.376687340983967
20.018066423311023,-1.1385503751154085,4.708843663781756,8.012225693104535,9.366881798308151
20.03807726463266,-1.0666336132232455,4.781246280873505,7.676691166819312,9.10301961810024
20.05808810595429,-1.2083157731888072,5.144704039069887,7.656846864416201,9.31011583171967
20.078098947275922,-1.3299494751479592,5.395931857989413,7.726387103881878,9.51213903153068
20.098109788597554,-1.1292885271142084,5.311540044594298,8.601585350489247,10.173374146870763
20.118120629919186,-1.1967669547931268,5.3934822153515665,9.043978608409184,10.597962438965915
20.13813147124082,-0.8909820896678831,5.234130737107637,9.708083419754223,11.06188800834964
20.158142312562454,-0.6902678296635546,5.332346924849431,10.214740611427024,11.549716333414825
20.178153153884086,-0.32178186699023253,5.019565999803618,10.58514913033367,11.707531184145088
20.198163995205718,-0.9294180925316737,5.010621457964203,9.284258901598553,10.601486891666031
20.21817483652735,-1.3422782414726966,4.980850611084162,9.051056279275278,10.412009356743887
20.238185677848982,-1.5624682023473389,5.356091847603516,9.124810563595078,10.70051461099504
20.258196519170617,-1.2727049161922335,5.5621186462123955,8.755784646564212,10.447295430626223
20.27820736049225,-0.6472472338786629,5.810565912725192,7.822692398446933,9.769012914798504
20.29821820181388,-0.2016585284379724,5.959023371189331,8.138026154953492,10.090095829474386
20.318229043135513,-0.5950145552557575,5.84817030547087,9.503753117914023,11.172482522031867
20.338239884457145,-0.8549929409364958,5.261945679444906,10.507271013775199,11.784638489772433
20.35825072577878,-1.438648711617452,4.254442517269325,12.134464340604955,12.939444912594404
20.378261567100413,-2.064848548608903,3.0610158143345583,12.307278866150089,12.84583675243066
20.398272408422045,-2.5622416794901612,2.9984706032657766,10.05556842412811,10.803416783797788
20.418283249743677,-1.705706294960091,3.1254954625669646,9.187474716894013,9.86101792353248
20.43829409106531,-0.5171005965206052,3.5582924010398886,8.208445467073885,8.9606192229762
20.45830493238694,-0.3485459901852355,4.274450511805389,6.644862181686536,7.903920665825612
20.478315773708577,-0.11268258221641933,4.322061590534822,6.080393647465991,7.464586163784109
20.49832661503021,-0.46755648499717684,4.252325028000069,6.221473420276886,7.547178583037794
20.51833745635184,-0.8214251638819469,4.182754804766262,6.497465000626377,7.775260428200619
20.538348297673473,-1.2258941181059315,4.313659182862824,6.8692571082925165,8.198920186236043
20.558359138995105,-1.1454358671448663,4.276595519790844,7.224956219534362,8.476786920359082
20.57836998031674,-1.1342197439684307,4.275379346207894,7.288558533171122,8.523147891821422
20.598380821638372,-1.1016598579033203,4.2622628495184856,7.382276189149163,8.597938200201124
20.618391662960004,-1.0983984057159715,4.369782805232439,7.874188424305851,9.070219471817772
20.638402504281636,-1.0930564658921154,4.466459652770387,8.080843764063136,9.299523532412552
20.658413345603268,-1.098407567758112,4.6927478194814185,8.019494560368488,9.35399640093176
20.6784241869249,-0.7909906694211304,4.911777171281769,7.998176653886108,9.42143323123919
20.698435028246536,-0.5061556047494369,5.220632652905865,8.073600621127822,9.62582141161415
20.718445869568168,-0.14071759625958374,5.495632298432783,8.270986974933127,9.932942215121248
20.7384567108898,0.06752595896023655,5.688157737882948,8.461904927011519,10.194927871253547
20.75846755221143,0.21105576397892306,5.7911756578946285,8.730639405212262,10.479921622265808
20.778478393533064,0.04280292595878961,5.808474966724568,9.207795097176305,10.886008830399316
20.7984892348547,-0.23917442273968523,5.780216906072137,9.881999508485316,11.452187012236218
20.81850007617633,-0.2883795575463918,5.755990351087472,10.17752163428621,11.694370471554803
20.838510917497963,-0.42031248563589635,5.681598697709609,10.433083667549099,11.889428172649247
20.858521758819595,-0.9051907838609653,5.453420749402937,10.176046732929203,11.5774735302051
20.878532600141227,-1.3995019926453152,5.161853773742457,9.298404660811055,10.73189611557823
20.898543441462863,-1.7797262401998215,5.396588070020266,9.043703300553453,10.673950192511906
20.918554282784495,-1.803888242576479,5.616125997102986,9.125660281599956,10.877584326210028
20.938565124106127,-1.8052423968728288,5.815406945440465,8.603013764177309,10.52287766533668
20.95857596542776,-1.0619854425581765,5.175735564437759,9.247095704456,10.663869364588832
20.97858680674939,-0.7439829872455274,4.93881848094462,10.320149122806502,11.457992238045957
20.998597648071023,-0.5904375559418893,3.6110275615660394,10.49790973516152,11.117124246104927
21.01860848939266,-1.3894105525602618,2.8667217874036286,9.316354874435525,9.862719521217738
21.03861933071429,-2.3537830073050947,3.1732426860239547,8.920725218422147,9.746590410476974
21.058630172035922,-1.8208439687126485,3.260843048644598,9.580395349762195,10.284992749872234
21.078641013357554,-1.0642214669339038,3.563339646670785,9.59572295749871,10.29115091524583
21.098651854679186,-0.7823904006464469,3.4825087487117727,9.413358511606196,10.067899958034975
21.118662696000822,-1.1283918149444485,3.5382426755515897,9.158473171207598,9.881763639763314
21.138673537322454,-1.3715755816247437,3.3790450669784975,9.029136483471824,9.740549958904287
21.158684378644086,-1.7548266781309012,3.5116594789023514,7.857791777050191,8.77851043809
21.178695219965718,-1.6420249770160327,3.4995265063615815,7.540202897545043,8.478440361370067
21.19870606128735,-1.9360269894819615,3.9696993277734993,7.0217876975550615,8.287141270475058
21.218716902608982,-1.6983907707687267,4.03197410970959,6.838168869909962,8.126920386101943
21.238727743930617,-1.4159198189865378,4.124589590053222,6.896231723809338,8.1518669213413
21.25873858525225,-1.2896006730782752,4.226201353021202,7.096796400157773,8.366827975413788
21.27874942657388,-1.5066673478046404,4.528364209102129,7.347643187329673,8.754700548479363
21.298760267895513,-1.6366198938694088,4.62854968548309,7.7789204072612845,9.20512459196459
21.318771109217145,-1.769360943931394,4.660589791071464,7.93077819455043,9.361264007384346
21.33878195053878,-1.8314490858680343,4.763855581927115,7.84536204083516,9.365513613608824
21.358792791860413,-1.6802921756999294,5.022097946687681,7.747451535698045,9.378451815593374
21.378803633182045,-1.4871196177950208,5.205094040558128,7.983927256641247,9.652479088128791
21.398814474503677,-1.797256097618155,5.382529335621884,8.18741964893019,9.956081418541672
21.41882531582531,-1.769726905475462,5.344802213649483,8.844237245302205,10.489622698795124
21.43883615714694,-1.663365044011868,5.388285642312806,8.890361351695287,10.52281178687614
21.458846998468577,-1.6233606156736176,5.375450418796717,9.257456508355919,10.832431512586359
21.47885783979021,-1.8398208086531502,5.497656924532775,9.720810221652899,11.313093646669916
21.49886868111184,-1.8232555150189451,5.391473648583509,10.34326229877809,11.809889154647271
21.518879522433473,-1.6539045502499108,5.41408203717079,10.148220256693895,11.617568535320457
21.538890363755105,-1.8183621317238159,5.720062557223569,9.312993892590015,11.085122933057091
21.55890120507674,-1.447832333792886,5.701896333794818,8.661227902857691,10.465362765705063
21.578912046398372,-0.9745003364832621,5.776183344835358,8.223636343298326,10.103462306632077
21.598922887720004,-0.4930105837162656,5.505159618823134,9.109397539917262,10.651345982435554
21.618933729041636,-0.7355525082716766,4.871546006980674,9.94495940685441,11.104634978467056
21.638944570363268,-1.2451344772424886,3.848276056655713,10.732961283726906,11.466292924820147
21.658955411684904,-1.7647307810856019,2.882412499379167,11.720604574003904,12.199135654434746
21.678966253006536,-2.4859391956857766,2.7241070820687345,11.502204770638011,12.08193382482976
21.698977094328168,-2.260925905252729,3.1314770025879186,9.836222674305725,10.567421753947837
21.7189879356498,-0.8980850113245648,3.2478825424354048,8.939074309681523,9.548634482129172
21.73899877697143,-0.49351113535870333,3.935012004901225,7.522397932983704,8.509238699573926
21.759009618293064,-0.20950419645559937,4.1142106919958366,5.895751132148117,7.187637336721705
21.7790204596147,-0.5557076834784758,4.194010963261841,5.535991857423456,6.972019705914998
21.79903130093633,-1.355266453298979,4.171034991034018,6.528532342235905,7.862229424045588
21.819042142257963,-1.9330595935697568,4.127364936726848,7.218803759626161,8.540098638962435
21.839052983579595,-2.0354523921666363,4.089899531034712,7.433114787112893,8.722353566087179
21.859063824901227,-1.889223554994421,4.19617494869262,7.632170220025359,8.914377428898495
21.879074666222863,-1.6430730076573379,4.252863321705691,7.990427295659607,9.197931344960894
21.899085507544495,-1.6477280429437031,4.341663431793504,8.342007791726726,9.549632154166524
21.919096348866127,-1.7980769165032762,4.416449268548977,8.094226425999768,9.391689010261585
21.93910719018776,-1.6917646436467964,4.554318382347282,8.10087903552835,9.448835220196083
21.95911803150939,-1.4584656368518234,4.853413413480578,8.182730430063016,9.622254653751112
21.979128872831023,-1.2052638453102744,5.1154304475082135,8.235775872192503,9.772585988843623
21.99913971415266,-0.9522558025778434,5.40875511635033,8.12450760152612,9.803998841657203
22.01915055547429,-0.6140119826647724,5.581593011314344,8.292384626357835,10.01785539948563
22.039161396795922,-0.7716040048009204,5.92990318327301,8.402207597951211,10.309068124392475
22.059172238117554,-0.6092383568553909,5.901915872069903,8.839126026215064,10.649130498004771
22.079183079439186,-0.6683462893926864,5.991305306109878,9.158418804561284,10.961548382655845
22.099193920760822,-0.7758387599296177,5.999808118178374,9.830795610777914,11.545571617291685
22.119204762082454,-0.988346456099309,5.9657929751837555,10.107803717951956,11.77704992075423
22.139215603404086,-1.1750065653971744,5.498748181438298,10.081336506209304,11.545594739712932
22.159226444725718,-2.155488495546942,5.4934158657184975,8.784524826290367,10.57129295060079
22.17923728604735,-2.405035017684937,5.502262848825844,8.566692997420413,10.480735454934425
22.199248127368985,-2.775927223214921,6.0096122389794875,8.712204960835031,10.912621131267878
22.219258968690617,-1.8319893404661194,5.652302640974245,10.111817837458224,11.755982989506649
22.23926981001225,-0.9831865185224031,5.650257697878303,11.076758539901022,12.454212882286273
22.25928065133388,-0.4487652449722615,4.434703209381487,11.644368207831162,12.47937094553431
22.279291492655513,-1.0790727580187978,3.5025213840807066,10.433378939784973,11.072703622206816
22.299302333977145,-1.9828052709317072,3.6116626186892375,8.626915635652768,9.547363930900621
22.31931317529878,-1.895122599613238,3.7707220954825242,8.39717605878567,9.412811492374196
22.339324016620413,-2.121999605560203,4.408165745448414,7.307839298612787,8.769821402748125
22.359334857942045,-1.1784439525584274,3.7846376439794684,7.557641651793011,8.544399010836843
22.379345699263677,-1.2731726059912547,3.6561846243898186,7.538817390188617,8.471529428878547
22.39935654058531,-1.2718467553509736,3.288037355423712,8.003863736182476,8.746304920752829
22.419367381906945,-1.5825464355251153,3.214343194393514,7.962016395460342,8.736153848814197
22.439378223228577,-2.007965110288192,3.3445023253266055,7.291718852516303,8.265558862853448
22.45938906455021,-1.8749302863148278,3.3658348997652228,6.6894419965430485,7.7226547934747085
22.47939990587184,-1.6761694517688193,3.690737173629589,6.73373971250094,7.858574677956321
22.499410747193473,-1.4670494101968479,4.1867713274100415,6.650428433118034,7.995268330255483
22.519421588515105,-1.2491000408398536,4.521765716916263,6.851275129586661,8.303603642669943
22.53943242983674,-1.0992070342966007,4.686872579932983,7.08900582875114,8.569138329543515
22.559443271158372,-1.1985509990625751,4.932166259109153,7.32693137932769,8.912845728584843
22.579454112480004,-1.2948665276964708,5.206261276260183,7.734471738419864,9.413759149983221
22.599464953801636,-1.411705481614717,5.509154854010382,8.287727783423623,10.050603795892087
22.619475795123268,-1.3133717996362244,5.612276778285102,8.3257788069327,10.127131525822863
22.639486636444904,-1.5863180446136511,5.5256986023900705,7.926561963533116,9.790431484029185
22.659497477766536,-2.0197015482453367,5.5733416308718065,7.815589636107591,9.811089599136315
22.679508319088168,-1.9547004961745755,5.7156918831681764,8.410225952289915,10.355231942691937
22.6995191604098,-1.564721938724956,5.689611759658062,8.925605246536902,10.69876631383399
22.71953000173143,-1.6101926894895118,5.924151986108069,9.481348980613207,11.295987216365123
22.739540843053064,-1.6850861685644596,5.91934889026401,10.142927404399728,11.86388375555245
22.7595516843747,-1.6034359094902904,5.616758253818889,10.404812499894534,11.9328696604081
22.77956252569633,-1.5018020137318404,5.4937572400155155,10.043086630862849,11.545553216199712
22.799573367017963,-1.6076351212212834,5.520551553672303,9.460004211013652,11.07006220843138
22.819584208339595,-1.4921629565429197,5.384098595889916,8.207552170044346,9.928249878596182
22.839595049661227,-0.9175632003295777,5.383310365526592,8.079825244201725,9.759546292902328
22.859605890982863,-0.09666953245340273,5.335694025759917,9.867292595322994,11.207103950547678
22.879616732304495,0.035572997392859934,4.90477928566929,10.800064715935406,11.876957446720198
22.899627573626127,-0.22557785318302281,3.8304676144617176,10.80949527124619,11.453224046809272
22.91963841494776,-1.5011461642717103,3.789201868130212,9.674947459363628,10.505641705405719
22.93964925626939,-1.413635146959025,3.771422017833753,10.660958761396014,11.39457969292827
22.959660097591026,-1.3983172506067707,3.597911257844157,11.179005038282453,11.83180580694416
22.97967093891266,-1.002833442065138,3.316994875468121,9.551665887919167,10.156605637413671
22.99968178023429,-0.6128353492669437,3.307855259279619,7.802208876568902,8.503542891559349
23.019692621555922,-0.6799811003104164,3.525340565109293,7.528222330738289,8.334909478551253
23.039703462877554,-1.2184645576017716,3.9175622949735978,6.767488710583453,7.91835835753501
23.059714304199186,-1.4073337438645517,3.9267807517000106,6.126222222952338,7.409993635256055
23.079725145520822,-1.7146086361326776,4.238964708101799,5.978658742677423,7.524295077974312
23.099735986842454,-1.520577767763287,4.299722722658375,6.645847662749752,8.06549413126231
23.119746828164086,-1.361683624269369,4.251772563376054,7.113887180615773,8.395978747367678
23.139757669485718,-1.5241090592976625,4.257373490492468,7.467312447166373,8.731485026298655
23.15976851080735,-1.728538427042637,4.315742821864465,7.80866797084468,9.08658713560726
23.179779352128985,-1.8393869362000235,4.366715304216418,8.19563813887641,9.46806158786286
23.199790193450617,-1.778065459132237,4.554746880962702,8.573031594840316,9.868100609228915
23.21980103477225,-1.4858148345550566,4.68369846024326,8.803286252121755,10.08354117563646
23.23981187609388,-1.0001450305431572,4.836015921094492,8.778545278365643,10.071126149681033
23.259822717415513,-0.791586424442048,5.170319878270359,8.565723200110156,10.037431419009774
23.279833558737145,-0.5487276876783655,5.421409734010349,8.544211171265925,10.133021223888834
23.29984440005878,-0.389495155021289,5.6187048407803415,8.441412163966,10.149103092006465
23.319855241380413,-0.43090678891690287,5.8675720418804795,8.346009212645141,10.209419685418869
23.339866082702045,-0.19990008760257563,5.699727622361742,8.653444293191583,10.36485302157896
23.359876924023677,-0.25326075705659845,5.535675826205961,9.130142305777518,10.681702115239435
23.37988776534531,-0.7354765922352134,5.51873424775996,10.006417153927721,11.447044347822912
23.399898606666945,-0.6280878301050694,5.282799849489654,10.878340281249727,12.117601716089208
23.419909447988577,-0.45803329268060156,5.179031372294141,11.669053794092745,12.76511928884409
23.43992028931021,-0.9621425612012854,5.563444234285647,11.249751830712514,12.595123397305159
23.45993113063184,-1.3779711116439952,5.32140264910481,10.239052539347789,11.615639315062216
23.479941971953473,-2.2054067031113003,5.455651012351894,8.8070498906523,10.589511552912192
23.499952813275108,-2.4772300305974357,4.9126576264454345,9.363021924769454,10.87613344168485
23.51996365459674,-2.1790505042972397,4.161354517877717,10.32032642928082,11.327186367884
23.539974495918372,-1.7249980672766854,3.2943974468240107,9.984921660474516,10.661520894359118
23.559985337240004,-1.8311115228158292,3.246962410189695,8.485641397711579,9.269795425675856
23.579996178561636,-1.3491697553733706,3.3618875365076057,7.701769981783052,8.515351856133494
23.600007019883268,-1.3461225913464563,4.015987381465653,7.552887315375475,8.658181040716022
23.620017861204904,-1.1221858674718426,4.259386707262813,8.26152354337729,9.367901649290364
23.640028702526536,-1.0358911981215715,4.160219640069542,8.556053617779167,9.566612207648566
23.660039543848168,-0.9376147823697264,3.9493586674316172,8.670831253837596,9.577086235276335
23.6800503851698,-1.1372790443168175,3.8957003984437986,8.418157439045837,9.345049505448788
23.70006122649143,-1.576824114134898,3.8338035313427037,8.000747393443175,9.009983939993083
23.720072067813067,-1.6954576805202544,3.7854588822479696,7.724423995526664,8.76865611932085
23.7400829091347,-1.6955096489915842,3.6649184181534875,7.175194589741106,8.232774300575256
23.76009375045633,-1.5978612268660919,3.8050044114208332,6.71048220913297,7.8794668342448775
23.780104591777963,-1.4817253980918585,4.076121743813406,6.5401909864450785,7.847114122957332
23.800115433099595,-1.5517819455937463,4.295591731509259,6.977591495548339,8.339268090662465
23.820126274421227,-1.6793068191583034,4.4406302357076015,7.226020820368519,8.646955539193769
23.840137115742863,-1.7484598244293441,4.606348940863779,7.311082354578279,8.81501000504014
23.860147957064495,-1.7048311800423064,4.805024844358729,7.693646024522537,9.231473513960523
23.880158798386127,-1.591852711160551,5.066749378941942,7.870214838983062,9.492321854620252
23.90016963970776,-1.3936712685088513,5.098208932193996,7.83054807564629,9.45004595087288
23.92018048102939,-1.5281924112883722,5.382459688161176,7.499600474078307,9.354028221639334
23.940191322351026,-1.5904996966412914,5.398966852566981,7.505160291797897,9.38598546231276
23.96020216367266,-1.6017904149862128,5.2963562411492235,8.084406130913687,9.790932975469715
23.98021300499429,-1.9552734258205708,5.319577912292107,8.870072707646269,10.531805388286454
24.000223846315922,-1.9970101348352693,5.3009737823727985,9.183481700172415,10.784310212255203
24.020234687637554,-1.8862190729757267,5.470442577559496,9.777471509552354,11.36795165104783
24.040245528959186,-1.685146931158427,5.699305268586458,10.453080689835017,12.016685264412088
24.060256370280822,-1.7876469925608882,5.794200749356925,10.17173870461487,11.853541859655648
24.080267211602454,-1.6380676201113564,5.9417058832202425,9.667383299317601,11.451617202577715
24.100278052924086,-0.8534400769781932,5.932963943829377,10.169070208279278,11.817139751016981
24.120288894245718,-0.16525592285032048,5.841357706152819,9.952423499306928,11.526691036826517
24.14029973556735,0.3610723117393836,4.772921445298856,10.25447981566658,11.335189930933966
24.160310576888985,-0.08589012737353478,3.7971923878133014,11.199954985408386,11.815099913969993
24.180321418210617,-0.8685021280002535,3.231356401838256,12.373316903405508,12.825659804762772
24.20033225953225,-1.8066727914894263,2.879679150157443,12.064132006763796,12.533308995389287
24.22034310085388,-1.5189870948220214,3.016795837413021,9.998522812605934,10.557155565170952
24.240353942175513,-0.44045553151566114,3.4716800515059143,8.590068808532662,9.27914629223964
24.26036478349715,0.4052658137043056,4.213130373757766,7.1155896231032685,8.26939794870294
24.28037562481878,0.9635275650346223,4.1590682091154285,6.8172479426048,8.052636891082367
24.300386466140413,0.5272322552619584,3.8199354969386534,6.8258233248467475,7.832534703990978
24.320397307462045,-0.6278744788068981,3.6232930315508285,7.204339931402423,8.096551762238464
24.340408148783677,-1.4547227033113934,3.7175103567675976,7.505268384166671,8.493370096383632
24.36041899010531,-1.5043282577663208,3.7365733317605843,7.6838227274215765,8.68175079410442
24.380429831426945,-1.4849833761347977,3.987198119075918,7.997643501974085,9.05385457090196
24.400440672748577,-1.3416587323526326,4.074318458631689,8.23537407598502,9.289922044323406
24.42045151407021,-1.3807700586772387,4.115804086949222,7.89106403142977,9.00161277092535
24.44046235539184,-1.4133025564760304,4.211651941452893,7.76728926514178,8.95328809108697
24.460473196713473,-1.2317114116129557,4.496070451517735,7.601697030604664,8.91183505947491
24.480484038035108,-0.76867847385036,4.716862275105118,7.776179065054385,9.132183301730526
24.50049487935674,-0.6831717767134364,4.96687897455078,7.701796653088628,9.184819986389044
24.520505720678372,-0.8598983662441881,4.984077359441946,7.597371245362187,9.13275988804516
24.540516562000004,-1.1227384860628105,5.1274417416427,7.881930126723108,9.464174692025521
24.560527403321636,-1.0879627703224268,5.249933701288498,8.63061604190631,10.16485100588578
24.580538244643268,-0.9410088410641627,5.460594895388701,8.924865133616528,10.500863700582228
24.600549085964904,-0.8220550058418341,5.482132816763825,9.402271892886587,10.918489129099491
24.620559927286536,-0.8037797817494418,5.697064411644622,9.928013888101903,11.471230618227299
24.640570768608168,-0.3921292539452335,5.644541942615219,10.478379364737394,11.911117612447619
24.6605816099298,-0.22178002940980396,5.494699638314666,10.575390930319235,11.9201122058683
24.68059245125143,-1.064926584303469,5.368610029855001,9.339097090471345,10.826950920401607
24.700603292573067,-1.993435896802857,5.306404981123489,8.698572607847803,10.377641044016327
24.7206141338947,-2.294621743662415,5.135122593821549,9.62534481955899,11.158383530746372
24.74062497521633,-1.6249288195047389,4.908085799766977,10.617398838034978,11.799526314496273
24.760635816537963,-0.9859184023153289,4.312949238676227,10.993106144434485,11.860418546137453
24.780646657859595,-1.1772629033397524,3.748331045773647,10.296526988965965,11.013247734968855
24.800657499181227,-1.9830115646743476,3.6743923090856794,9.64705066377841,10.517641445501996
24.820668340502863,-2.1329753947954178,3.7629671451594633,9.27349987831824,10.229907755484701
24.840679181824495,-2.099779345833103,4.129186342109143,8.100112158099392,9.334940148839172
24.860690023146127,-1.6649389259036789,4.240689815729074,7.36288437157163,8.656989143346987
24.88070086446776,-0.9501862541011206,4.2314313806644295,8.256268581752476,9.325894484324788
24.90071170578939,-0.7608400951245159,4.068072329175745,8.784000414898042,9.711639825850932
24.920722547111026,-0.6253307478443247,3.7571137927056397,9.056527946198644,9.821864528802713
24.94073338843266,-1.129972262938184,3.6073784125000437,8.825220352893028,9.605815538249129
24.96074422975429,-1.6311115001136693,3.4245855871771473,7.748536757910444,8.624403714225819
24.980755071075922,-1.7278893289321915,3.3592333729956443,7.51056795776284,8.40857358478355
25.000765912397554,-1.6924952086404474,3.490304174403598,7.4153187255716,8.368322954581224
25.02077675371919,-1.4706776406285136,3.6217590244727855,7.275671899680881,8.259568180928282
25.040787595040822,-1.197423212558912,3.797503519558136,7.093766807185263,8.135204228332292
25.060798436362454,-0.9875227940076727,4.005606500474087,7.295243548925597,8.380513638642375
25.080809277684086,-1.0982809822262143,4.3183801916443185,7.448453699515974,8.67945686104314
25.100820119005718,-1.2626566434343591,4.412095059535705,7.795685467358779,9.0461842731104
25.12083096032735,-1.5335240629980411,4.562222996875847,7.861045916829596,9.217343161577796
25.140841801648985,-1.4866239974531237,4.621075314491383,7.860714966153408,9.23877734647709
25.160852642970617,-1.5793820447339262,4.869498694663674,7.788384654642663,9.32045029482145
25.18086348429225,-1.6894179901363138,5.235355769850218,8.005545721324381,9.713382275945023
25.20087432561388,-1.5048566665826852,5.363984655401909,8.602831952584536,10.250049985624804
25.220885166935513,-1.311109978544169,5.448994551178201,9.195594204966085,10.76773716481293
25.24089600825715,-1.4370112408942977,5.5969189055972866,9.602596584627568,11.20843997454411
25.26090684957878,-1.5333875441566949,5.469921942613828,9.799523892214745,11.32565999859033
25.280917690900413,-1.94018809872674,5.5293985649373125,10.022647609516428,11.611254732672808
25.300928532222045,-1.8606650320382419,5.567904035084078,10.169537152657368,11.740458017473523
25.320939373543677,-1.8545480213317944,5.704307036078328,9.467189070859348,11.208773915392909
25.34095021486531,-1.5257365871441582,5.643895803613523,8.866106011481113,10.622030430200953
25.360961056186945,-1.0486045637819972,5.720894135198333,8.538649166497,10.33142597438307
25.380971897508577,-0.6119160548999621,5.568402227719558,8.418926552689602,10.116536268678818
25.40098273883021,-0.30473003487475986,5.154881866874797,9.226372863472596,10.567573730136818
25.42099358015184,-0.747307085622582,4.465474549126595,10.463586977971978,11.408598981282204
25.441004421473473,-1.3493431510778997,3.548594702735206,12.246068710019953,12.81234307191262
25.461015262795108,-1.6722461691348092,3.0518038070563978,12.398962540494257,12.887377740691122
25.48102610411674,-1.2500046326860053,3.133460898908008,10.679528721734012,11.194823131178827
25.501036945438372,0.030694628504571397,3.5303399442856307,9.312463035421766,9.966400884199947
25.521047786760004,0.770228179790607,4.13645076278492,7.980512423215726,9.014596518112743
25.541058628081636,0.9411849240761135,4.3091035968991465,6.852885693640285,8.156225709454924
25.56106946940327,0.713490717911816,4.088012058628337,6.06125818455023,7.3403237472436755
25.581080310724904,0.03369378844191635,3.9503052965766323,6.1275451235828555,7.2945271119468025
25.601091152046536,-0.8383141716059589,3.9862276864335655,6.575494143339255,7.732617950528745
25.621101993368168,-1.4038369107497657,4.054821080462859,6.946689422502815,8.166728608066062
25.6411128346898,-1.2777966948807524,4.131695875720491,7.156199325724131,8.360479572108723
25.66112367601143,-1.1082551627524695,4.482349007281298,7.67105536100408,8.955199122501433
25.681134517333067,-0.9671284474302377,4.416923680805497,8.20233474961707,9.363858505215115
25.7011453586547,-1.3415513211742385,4.572643799543433,8.291510408990733,9.568784178941735
25.72115619997633,-1.6730281277957175,4.804644180869028,8.231297038336235,9.67190606255243
25.741167041297963,-1.2889103455401894,4.940014750146328,8.242040967290214,9.698310130486613
25.761177882619595,-1.0962969304333334,5.162304299070662,8.14452159402938,9.702202422629473
25.78118872394123,-0.9887660349022621,5.221994180068913,8.157142385427402,9.738334813341757
25.801199565262863,-1.0891642348428723,5.467745657178038,8.13426449797307,9.85819597801211
25.821210406584495,-0.977988189945068,5.685161515572921,8.6101932618186,10.367594595955488
25.841221247906127,-0.8046044161092438,5.737941273579932,8.919370411642888,10.633357631091544
25.86123208922776,-0.8838967600088676,5.7211173394807915,9.140899722414362,10.822331779155448
