"Time (s)","Acceleration x (m/s^2)","Acceleration y (m/s^2)","Acceleration z (m/s^2)","Absolute acceleration (m/s^2)"
1.640845900E-2,-3.542380095E0,4.173800468E0,7.947981358E0,9.650879480E0
1.877720900E-2,-3.578291416E0,4.161829948E0,7.919251919E0,9.635328169E0
2.114668800E-2,-3.652508497E0,4.159435272E0,7.921646595E0,9.664067719E0
2.351616700E-2,-3.707573175E0,4.123524189E0,7.945586681E0,9.689267170E0
2.588486500E-2,-3.743484735E0,4.109159470E0,7.909676075E0,9.667566660E0
2.825356300E-2,-3.774607897E0,4.051701069E0,7.900099277E0,9.647565233E0
3.062304200E-2,-3.846430540E0,4.044518948E0,7.936010838E0,9.702238372E0
3.299257400E-2,-3.884735823E0,4.018183708E0,7.928827763E0,9.700684636E0
3.536127100E-2,-3.944588423E0,3.984666348E0,7.952768803E0,9.730563979E0
3.772996900E-2,-3.970924139E0,3.963119507E0,7.945586681E0,9.726607962E0
4.009950100E-2,-4.006834984E0,3.953542948E0,7.950375080E0,9.741339351E0
4.246898000E-2,-4.047534943E0,3.965513468E0,7.959951878E0,9.770807033E0
4.483762600E-2,-4.037958145E0,3.936784267E0,7.900099277E0,9.706438324E0
4.720637600E-2,-4.030776024E0,3.910449266E0,7.890522480E0,9.684994261E0
4.957590700E-2,-4.009229183E0,3.900872707E0,7.902493000E0,9.681948261E0
5.194538600E-2,-3.985288382E0,3.898478746E0,7.888128757E0,9.659359985E0
5.431403200E-2,-3.973317862E0,3.915237427E0,7.883340359E0,9.657297456E0
5.668278200E-2,-3.980499983E0,3.931996346E0,7.837852955E0,9.630000743E0
5.905226100E-2,-3.939800501E0,3.965513468E0,7.768423557E0,9.570565794E0
6.142174000E-2,-3.923042059E0,3.991848469E0,7.725329876E0,9.539697840E0
6.379043800E-2,-3.918253660E0,4.049306870E0,7.730118275E0,9.565789377E0
6.615918800E-2,-3.906283140E0,4.056489468E0,7.722935677E0,9.558132152E0
6.852866700E-2,-3.908676863E0,4.092400551E0,7.696600914E0,9.553175530E0
7.089814600E-2,-3.899101019E0,4.097188950E0,7.691812515E0,9.547456510E0
7.326684400E-2,-3.879947901E0,4.116341591E0,7.703783035E0,9.557538222E0
7.563554200E-2,-3.867977381E0,4.104371071E0,7.691812515E0,9.537876633E0
7.800507400E-2,-3.839248419E0,4.066065788E0,7.730118275E0,9.540830570E0
8.037455300E-2,-3.815307379E0,4.066065788E0,7.746876717E0,9.544818503E0
8.274325100E-2,-3.808125257E0,4.068459988E0,7.785181999E0,9.574092302E0
8.511194900E-2,-3.762637377E0,4.054095268E0,7.782788277E0,9.548032354E0
8.748148000E-2,-3.824883699E0,4.073247910E0,7.792364597E0,9.588640668E0
8.985095900E-2,-3.889524698E0,4.063671589E0,7.782788277E0,9.602792433E0
9.221960500E-2,-3.961347342E0,4.042124748E0,7.821094036E0,9.654043565E0
9.458835500E-2,-4.061899185E0,4.006213188E0,7.845035076E0,9.700172393E0
9.695788600E-2,-4.143298626E0,3.972695827E0,7.931222439E0,9.790481347E0
9.932736500E-2,-4.215121746E0,3.965513468E0,7.976709843E0,9.854970741E0
1.016960110E-1,-4.274974346E0,3.936784267E0,8.077261925E0,9.950670140E0
1.040647610E-1,-4.337220669E0,3.927207947E0,8.199360847E0,1.007293223E1
1.064342400E-1,-4.375526428E0,3.903266907E0,8.357371330E0,1.020913217E1
1.088037190E-1,-4.447349072E0,3.931996346E0,8.479470253E0,1.035089005E1
1.111724170E-1,-4.535930634E0,3.941572428E0,8.654239655E0,1.053596336E1
1.135411670E-1,-4.636482716E0,3.963119507E0,8.845767975E0,1.074480801E1
1.159106460E-1,-4.703517914E0,3.951148987E0,8.975049019E0,1.087594428E1
1.182801260E-1,-4.756187916E0,3.953542948E0,9.042083740E0,1.095495795E1
1.206488240E-1,-4.784917355E0,3.924813747E0,9.058842659E0,1.097097203E1
1.230175210E-1,-4.789705276E0,3.920025826E0,9.128272057E0,1.102874562E1
1.253870530E-1,-4.741823196E0,3.886508226E0,9.207276344E0,1.106181590E1
1.277565320E-1,-4.646059513E0,3.884114265E0,9.310222626E0,1.110641517E1
1.301252300E-1,-4.528748989E0,3.864961386E0,9.374863625E0,1.110565450E1
1.324939280E-1,-4.389890671E0,3.867355585E0,9.415562630E0,1.108514316E1
1.348634590E-1,-4.251033306E0,3.908055305E0,9.374863625E0,1.101055169E1
1.372329380E-1,-4.133722305E0,3.948754787E0,9.300646782E0,1.091706714E1
1.396015840E-1,-3.994864702E0,4.008606911E0,9.276705742E0,1.086669880E1
1.419703340E-1,-3.860795259E0,4.011001587E0,9.243187904E0,1.079029177E1
1.443398650E-1,-3.662085056E0,3.915237427E0,9.173758507E0,1.062533746E1
1.467093440E-1,-3.520833254E0,3.972695827E0,9.106724739E0,1.054092095E1
1.490779900E-1,-3.420280933E0,4.022972107E0,9.073206902E0,1.049789073E1
1.514467400E-1,-3.300575972E0,4.025365829E0,9.051659584E0,1.044173898E1
1.538162190E-1,-3.135383368E0,4.027760029E0,9.039690018E0,1.038120780E1
1.561856990E-1,-2.972584486E0,3.979878187E0,9.051659584E0,1.032512616E1
1.585543960E-1,-2.816968203E0,3.989454508E0,9.022931099E0,1.025984126E1
1.609231460E-1,-2.620651960E0,3.905661106E0,9.106724739E0,1.024960686E1
1.632926260E-1,-2.469823837E0,3.936784267E0,9.094753265E0,1.021336561E1
1.656621050E-1,-2.340542555E0,3.922419786E0,9.104331017E0,1.018589023E1
1.680308030E-1,-2.199290752E0,3.836232185E0,9.085177422E0,1.010415786E1
1.703995530E-1,-2.216049433E0,3.881720066E0,8.948713303E0,1.000290435E1
1.727690320E-1,-2.151408672E0,3.785956144E0,8.912802696E0,9.919681200E0
1.751385110E-1,-2.125073433E0,3.829050064E0,8.752397537E0,9.786829116E0
1.775072090E-1,-2.120285511E0,3.841020584E0,8.663815498E0,9.711372136E0
1.798759070E-1,-2.110708952E0,3.802714825E0,8.577629089E0,9.617247689E0
1.822454380E-1,-2.086768150E0,3.788350344E0,8.503411293E0,9.540136438E0
1.846149170E-1,-2.093950272E0,3.764409304E0,8.479470253E0,9.510879082E0
1.869836150E-1,-2.050856590E0,3.685404062E0,8.496229172E0,9.485469203E0
1.893523130E-1,-2.034097672E0,3.675827503E0,8.433982849E0,9.422384405E0
1.917218440E-1,-2.046068192E0,3.661463022E0,8.369341850E0,9.361548457E0
1.940913240E-1,-2.089162350E0,3.596822262E0,8.321459770E0,9.303140460E0
1.964599690E-1,-2.175349712E0,3.522605181E0,8.259213448E0,9.238804057E0
1.988287190E-1,-2.283084393E0,3.534575701E0,8.271183968E0,9.279988360E0
2.011981990E-1,-2.378848076E0,3.560910702E0,8.319066048E0,9.356594632E0
2.035676780E-1,-2.515311718E0,3.582457781E0,8.374129295E0,9.449171299E0
2.059363760E-1,-2.745145321E0,3.721315622E0,8.343007088E0,9.538856329E0
2.083051260E-1,-2.970190525E0,3.785956144E0,8.390889168E0,9.672771925E0
2.106746050E-1,-3.180871248E0,3.912843227E0,8.501017570E0,9.884107636E0
2.130440840E-1,-3.343670130E0,4.022972107E0,8.467499733E0,9.953039045E0
2.154127820E-1,-3.453798532E0,4.090006828E0,8.498623848E0,1.004407723E1
2.177815320E-1,-3.563926935E0,4.166617870E0,8.541716576E0,1.015003457E1
2.201510110E-1,-3.559138775E0,4.195346832E0,8.546505928E0,1.016421012E1
2.225204900E-1,-3.525621414E0,4.207317352E0,8.599175453E0,1.020183043E1
2.248891880E-1,-3.458586693E0,4.216894150E0,8.575234413E0,1.016261105E1
2.272578860E-1,-3.295788050E0,4.209711552E0,8.544110298E0,1.007897371E1
2.296274170E-1,-3.113836527E0,4.209711552E0,8.503411293E0,9.986273223E0
2.319968960E-1,-2.872032642E0,4.226470470E0,8.448347092E0,9.873509645E0
2.343655940E-1,-2.599105358E0,4.243228912E0,8.414829254E0,9.775975227E0
2.367342920E-1,-2.321389675E0,4.305475712E0,8.383707047E0,9.706313150E0
2.391038240E-1,-2.041280270E0,4.401239395E0,8.433982849E0,9.729840700E0
2.414733030E-1,-1.775535345E0,4.480245113E0,8.577629089E0,9.838741933E0
2.438419490E-1,-1.457120180E0,4.573614597E0,8.510593414E0,9.770944170E0
2.462106990E-1,-1.236863017E0,4.734018803E0,8.422011375E0,9.740176577E0
2.485801780E-1,-1.059699655E0,4.887241364E0,8.410041809E0,9.784523225E0
2.509496570E-1,-8.801423311E-1,4.983005524E0,8.407648087E0,9.812927235E0
2.533183550E-1,-7.460727692E-1,5.117074966E0,8.426800728E0,9.886963705E0
2.556871050E-1,-6.766438484E-1,5.169744968E0,8.240060806E0,9.751036459E0
2.580565840E-1,-5.976386070E-1,5.243962288E0,8.120355606E0,9.684858675E0
2.604260630E-1,-5.952445269E-1,5.299026489E0,7.995863438E0,9.610818378E0
2.627947610E-1,-6.167914867E-1,5.366061687E0,7.907281399E0,9.576019470E0
2.651635110E-1,-6.862202883E-1,5.442672729E0,7.847428799E0,9.574744042E0
2.675329900E-1,-7.987428904E-1,5.495342731E0,7.718147755E0,9.508237834E0
2.699024690E-1,-9.567533731E-1,5.555194855E0,7.682236195E0,9.528500398E0
2.722711670E-1,-1.184192896E0,5.634200573E0,7.672659874E0,9.592509497E0
2.746398650E-1,-1.423602819E0,5.691658497E0,7.763635159E0,9.731169113E0
2.770093960E-1,-1.722865105E0,5.703629017E0,7.797152519E0,9.813013581E0
2.793788760E-1,-2.096344471E0,5.720387936E0,7.900099277E0,9.976425556E0
2.817475740E-1,-2.457853317E0,5.708417416E0,7.993468761E0,1.012534519E1
2.841162710E-1,-2.855273724E0,5.727570057E0,8.043745041E0,1.027907978E1
2.864858030E-1,-3.216782808E0,5.729964733E0,8.141902924E0,1.046282804E1
2.888552820E-1,-3.539986134E0,5.706023693E0,8.194572449E0,1.059439596E1
2.912239280E-1,-3.812913179E0,5.667717457E0,8.405253410E0,1.083095624E1
2.935926780E-1,-4.047534943E0,5.564771652E0,8.457923889E0,1.090347189E1
2.959621570E-1,-4.205545425E0,5.466613293E0,8.472288132E0,1.092474894E1
2.983316360E-1,-4.337220669E0,5.332543850E0,8.460317612E0,1.090066425E1
3.007003340E-1,-4.394678593E0,5.217627048E0,8.422011375E0,1.083822437E1
3.030690840E-1,-4.409043789E0,5.152986526E0,8.426800728E0,1.081683446E1
3.054385630E-1,-4.442560673E0,5.088346004E0,8.362159729E0,1.074957328E1
3.078080420E-1,-4.440166950E0,5.057222366E0,8.359766006E0,1.073202070E1
3.101767400E-1,-4.428196430E0,5.047646046E0,8.424406052E0,1.077303446E1
3.125454380E-1,-4.449743271E0,5.062010765E0,8.498623848E0,1.084669422E1
3.149149690E-1,-4.456925869E0,5.105104446E0,8.551293373E0,1.091104477E1
3.172844490E-1,-4.444955349E0,5.138621807E0,8.639874458E0,1.099138266E1
3.196531460E-1,-4.411437988E0,5.152986526E0,8.702121735E0,1.103362941E1
3.220218440E-1,-4.353979111E0,5.164957047E0,8.750003815E0,1.105425177E1
3.243913760E-1,-4.258215427E0,5.188898087E0,8.843373299E0,1.110235620E1
3.267608550E-1,-4.176815987E0,5.174533367E0,8.881678581E0,1.109530539E1
3.291295010E-1,-4.059505463E0,5.157774448E0,8.979836464E0,1.112293508E1
3.314982510E-1,-3.932617903E0,5.169744968E0,9.042083740E0,1.113332946E1
3.338677300E-1,-3.820095301E0,5.133833408E0,9.073206902E0,1.110281302E1
3.362372090E-1,-3.695602655E0,5.129045486E0,9.111513138E0,1.108982679E1
3.386059070E-1,-3.506468534E0,5.124257565E0,9.128272057E0,1.103986811E1
3.409746570E-1,-3.353246212E0,5.121862888E0,9.123482704E0,1.098706859E1
3.433441360E-1,-3.159324169E0,5.121862888E0,9.073206902E0,1.088751083E1
3.457136150E-1,-2.979767084E0,5.095528126E0,9.046872139E0,1.080228283E1
3.480823130E-1,-2.788239002E0,5.069192886E0,8.929560661E0,1.063992701E1
3.504510630E-1,-2.618257999E0,5.040463924E0,8.860131264E0,1.052442291E1
3.528205420E-1,-2.477006197E0,5.011734486E0,8.800279617E0,1.042583155E1
3.551900210E-1,-2.302237034E0,4.980611324E0,8.675786972E0,1.026528441E1
3.575587190E-1,-2.189714193E0,4.992581844E0,8.572840691E0,1.015944483E1
3.599274170E-1,-2.077191830E0,4.947093964E0,8.429194450E0,9.991985972E0
3.622969490E-1,-1.981427670E0,4.944700241E0,8.254425049E0,9.824034251E0
3.646664280E-1,-1.883269787E0,4.937517643E0,8.094020844E0,9.666382932E0
3.670350740E-1,-1.890452147E0,4.913576603E0,8.010227203E0,9.585446479E0
3.694038240E-1,-1.840175867E0,4.908788681E0,7.914463520E0,9.493217913E0
3.717733550E-1,-1.849752188E0,4.892030239E0,7.861793995E0,9.442528678E0
3.741428340E-1,-1.916787148E0,4.918365002E0,7.880946636E0,9.485447124E0
3.765114800E-1,-1.940727949E0,4.911182404E0,7.854610920E0,9.464726635E0
3.788802300E-1,-2.050856590E0,4.882453442E0,7.830669880E0,9.453240457E0
3.812497090E-1,-2.144226551E0,4.858512402E0,7.833064556E0,9.463601355E0
3.836191880E-1,-2.230413914E0,4.832177639E0,7.830669880E0,9.468055647E0
3.859878860E-1,-2.335754395E0,4.817812443E0,7.789970875E0,9.452550532E0
3.883566360E-1,-2.405183315E0,4.784295559E0,7.785181999E0,9.448991985E0
3.907261150E-1,-2.486582518E0,4.748383999E0,7.823487759E0,9.483522759E0
3.930955940E-1,-2.508129597E0,4.724442959E0,7.873764515E0,9.518783692E0
3.954642920E-1,-2.553617239E0,4.707684040E0,7.955163479E0,9.589988321E0
3.978329900E-1,-2.563193798E0,4.650226116E0,8.036561966E0,9.632283925E0
4.002025210E-1,-2.548829079E0,4.607131958E0,8.113173485E0,9.671906665E0
4.025720010E-1,-2.529676199E0,4.552067280E0,8.153873444E0,9.675031283E0
4.049406990E-1,-2.529676199E0,4.542491436E0,8.259213448E0,9.759513148E0
4.073093960E-1,-2.510523558E0,4.547279358E0,8.381312370E0,9.860368915E0
4.096789280E-1,-2.524888039E0,4.530520916E0,8.489047050E0,9.948095255E0
4.120484070E-1,-2.563193798E0,4.513761997E0,8.603963852E0,1.004849261E1
4.144170530E-1,-2.553617239E0,4.470668316E0,8.747610092E0,1.015029647E1
4.167858030E-1,-2.551223278E0,4.463486195E0,8.850555420E0,1.023541794E1
4.191552820E-1,-2.532070637E0,4.458697796E0,8.903225899E0,1.027418119E1
4.215247610E-1,-2.500947237E0,4.422786713E0,8.975049019E0,1.031345162E1
4.238934590E-1,-2.414759636E0,4.398845673E0,9.018142700E0,1.032026187E1
4.262622090E-1,-2.350119114E0,4.338993073E0,9.073206902E0,1.032826240E1
4.286316880E-1,-2.235202312E0,4.310264111E0,9.092359543E0,1.030754617E1
4.310011670E-1,-2.117891312E0,4.312657833E0,9.066024780E0,1.026047204E1
4.333698650E-1,-2.012551069E0,4.295898914E0,9.061236382E0,1.022795747E1
4.357385630E-1,-1.909604788E0,4.336598873E0,9.039690018E0,1.020630569E1
4.381080940E-1,-1.852146387E0,4.346175194E0,9.039690018E0,1.019978827E1
4.404775740E-1,-1.765958786E0,4.365327835E0,9.001383781E0,1.015872076E1
4.428462710E-1,-1.746806145E0,4.384480953E0,8.972654343E0,1.013822129E1
4.452149690E-1,-1.727653265E0,4.415604115E0,8.927166939E0,1.010824688E1
4.475845010E-1,-1.730047464E0,4.420392513E0,8.891255379E0,1.007905533E1
4.499539800E-1,-1.756382465E0,4.458697796E0,8.888861656E0,1.009835268E1
4.523226260E-1,-1.749200106E0,4.456304073E0,8.855343819E0,1.006655160E1
4.546913760E-1,-1.777929306E0,4.497003555E0,8.824220657E0,1.006235280E1
4.570608550E-1,-1.804264545E0,4.489820957E0,8.800279617E0,1.004284741E1
4.594303340E-1,-1.813840866E0,4.518550396E0,8.776338577E0,1.003650513E1
4.617990320E-1,-1.842570066E0,4.554461956E0,8.752397537E0,1.003706385E1
4.641677820E-1,-1.856934547E0,4.559249878E0,8.699728012E0,9.996010847E0
4.665372610E-1,-1.885663748E0,4.621496677E0,8.675786972E0,1.000915775E1
4.689067400E-1,-1.919181347E0,4.635860920E0,8.615933418E0,9.970394786E0
4.712754380E-1,-1.931151628E0,4.669378281E0,8.575234413E0,9.953244967E0
4.736441880E-1,-1.945516348E0,4.688531399E0,8.522564888E0,9.919751650E0
4.760136670E-1,-1.921575308E0,4.702896118E0,8.508199692E0,9.909548201E0
4.783831460E-1,-1.940727949E0,4.707684040E0,8.477076530E0,9.888859413E0
4.807518440E-1,-1.921575308E0,4.734018803E0,8.443558693E0,9.868995343E0
4.831205420E-1,-1.957486868E0,4.767536640E0,8.407648087E0,9.861526596E0
4.854900740E-1,-1.885663748E0,4.769930363E0,8.359766006E0,9.807836210E0
4.878595530E-1,-1.876087189E0,4.803448200E0,8.311883926E0,9.781627276E0
4.902281990E-1,-1.849752188E0,4.796266079E0,8.280760765E0,9.746627638E0
4.925969490E-1,-1.813840866E0,4.808236599E0,8.283154488E0,9.747810326E0
4.949664280E-1,-1.773141146E0,4.774719238E0,8.259213448E0,9.703431357E0
4.973359070E-1,-1.737229586E0,4.786689281E0,8.247242928E0,9.692645501E0
4.997046050E-1,-1.679771304E0,4.777112961E0,8.220908165E0,9.655349343E0
5.020733550E-1,-1.619918823E0,4.765142441E0,8.163449287E0,9.590235854E0
5.044428340E-1,-1.548095942E0,4.736413479E0,8.125144005E0,9.531431099E0
5.068123130E-1,-1.490637541E0,4.693319321E0,8.079656601E0,9.462034523E0
5.091810110E-1,-1.402055740E0,4.674167156E0,8.065291405E0,9.426692121E0
5.115497610E-1,-1.325444698E0,4.712472439E0,7.986286640E0,9.367228749E0
5.139192400E-1,-1.265592098E0,4.695713520E0,7.928827763E0,9.301492273E0
5.162887190E-1,-1.184192896E0,4.705289841E0,7.873764515E0,9.248688174E0
5.186574170E-1,-1.136310935E0,4.693319321E0,7.840246677E0,9.208035445E0
5.210261150E-1,-1.083640695E0,4.652619839E0,7.813911915E0,9.158513413E0
5.233956460E-1,-1.047729135E0,4.631072998E0,7.749270916E0,9.088221673E0
5.257651260E-1,-1.016605854E0,4.602344036E0,7.698994637E0,9.027157720E0
5.281338240E-1,-9.926649332E-1,4.585585117E0,7.682236195E0,9.001651376E0
5.305025210E-1,-9.806944132E-1,4.590373516E0,7.612807274E0,8.943608060E0
5.328720530E-1,-9.591475725E-1,4.561644077E0,7.576895714E0,8.895949045E0
5.352415320E-1,-9.926649332E-1,4.566432476E0,7.526619911E0,8.859328220E0
5.376101780E-1,-1.011817813E0,4.580797195E0,7.497890472E0,8.844537284E0
5.399789280E-1,-1.038152814E0,4.590373516E0,7.476343632E0,8.834308370E0
5.423484070E-1,-1.086034775E0,4.633467197E0,7.464373112E0,8.852420898E0
5.447178860E-1,-1.121946335E0,4.631072998E0,7.473949909E0,8.863719757E0
5.470865840E-1,-1.177010536E0,4.645437717E0,7.529013634E0,8.924768439E0
5.494553340E-1,-1.289533138E0,4.666984558E0,7.584078312E0,8.997882219E0
5.518248130E-1,-1.361356139E0,4.650226116E0,7.641536236E0,9.048257816E0
5.541942920E-1,-1.488243461E0,4.659801960E0,7.725329876E0,9.143814554E0
5.565629900E-1,-1.629495144E0,4.659801960E0,7.816305637E0,9.244654810E0
5.589316880E-1,-1.794687986E0,4.681348801E0,7.902493000E0,9.358703285E0
5.613012190E-1,-1.919181347E0,4.690925598E0,7.998257160E0,9.468904774E0
5.636706990E-1,-2.055644751E0,4.712472439E0,8.084444046E0,9.580778014E0
5.660393960E-1,-2.177743673E0,4.712472439E0,8.180208206E0,9.688434873E0
5.684080940E-1,-2.297448874E0,4.736413479E0,8.249636650E0,9.786132475E0
5.707776260E-1,-2.407577276E0,4.753171921E0,8.319066048E0,9.879065318E0
5.731471050E-1,-2.441094875E0,4.748383999E0,8.364553452E0,9.923298304E0
5.755157510E-1,-2.486582518E0,4.767536640E0,8.414829254E0,9.986082796E0
5.778845010E-1,-2.484188557E0,4.729230881E0,8.448347092E0,9.995568323E0
5.802539800E-1,-2.417153835E0,4.736413479E0,8.512988091E0,1.003729105E1
5.826234590E-1,-2.342936516E0,4.736413479E0,8.539322853E0,1.004206149E1
5.849921570E-1,-2.261537313E0,4.743595600E0,8.536929131E0,1.002473986E1
5.873609070E-1,-2.149014473E0,4.690925598E0,8.553688049E0,9.989425680E0
5.897303860E-1,-2.081979752E0,4.669378281E0,8.548899651E0,9.960994852E0
5.920998650E-1,-1.959880829E0,4.671772480E0,8.520169258E0,9.912611924E0
5.944685630E-1,-1.871299267E0,4.707684040E0,8.472288132E0,9.871358374E0
5.968372610E-1,-1.801870346E0,4.707684040E0,8.433982849E0,9.825532681E0
5.992067920E-1,-1.749200106E0,4.710078239E0,8.383707047E0,9.774000300E0
6.015762710E-1,-1.713288546E0,4.719654560E0,8.359766006E0,9.751727257E0
6.039449690E-1,-1.639071703E0,4.745989323E0,8.374129295E0,9.764067398E0
6.063136670E-1,-1.619918823E0,4.743595600E0,8.343007088E0,9.733016155E0
6.086831990E-1,-1.579219103E0,4.736413479E0,8.314277649E0,9.698183255E0
6.110526780E-1,-1.505002022E0,4.745989323E0,8.335824966E0,9.709553214E0
6.134213240E-1,-1.454725981E0,4.724442959E0,8.335824966E0,9.691365581E0
6.157900740E-1,-1.397267699E0,4.736413479E0,8.359766006E0,9.709359266E0
6.181595530E-1,-1.370932579E0,4.762748718E0,8.345400810E0,9.706129310E0
6.205290320E-1,-1.368538380E0,4.781900883E0,8.302307129E0,9.678211457E0
6.228977300E-1,-1.394873500E0,4.803448200E0,8.319066048E0,9.706989574E0
6.252664800E-1,-1.404449940E0,4.846541882E0,8.316671371E0,9.727716615E0
6.276359590E-1,-1.485849261E0,4.836965561E0,8.333430290E0,9.749361224E0
6.300054380E-1,-1.524154902E0,4.860906601E0,8.357371330E0,9.787600150E0
6.323741360E-1,-1.540913582E0,4.887241364E0,8.378918648E0,9.821701508E0
6.347428340E-1,-1.615130663E0,4.908788681E0,8.414829254E0,9.874928088E0
6.371123650E-1,-1.631889224E0,4.887241364E0,8.412435532E0,9.864951199E0
6.394818440E-1,-1.631889224E0,4.927940845E0,8.431589127E0,9.901482647E0
6.418505420E-1,-1.658224463E0,4.935123444E0,8.438770294E0,9.915543145E0
6.442192400E-1,-1.694135904E0,4.911182404E0,8.465106010E0,9.932161337E0
6.465887710E-1,-1.694135904E0,4.913576603E0,8.477076530E0,9.943548562E0
6.489582510E-1,-1.749200106E0,4.942306042E0,8.544110298E0,1.002436586E1
6.513268960E-1,-1.775535345E0,4.942306042E0,8.649451256E0,1.011888936E1
6.536956460E-1,-1.828205585E0,4.947093964E0,8.728456497E0,1.019813842E1
6.560651260E-1,-1.885663748E0,4.992581844E0,8.812250137E0,1.030229847E1
6.584346050E-1,-1.907210827E0,4.997369766E0,8.881678581E0,1.036799750E1
6.608033030E-1,-1.947910309E0,5.057222366E0,8.900832176E0,1.042087645E1
6.631720530E-1,-2.000580549E0,5.062010765E0,8.936743736E0,1.046382646E1
6.655415320E-1,-2.038886070E0,5.085951805E0,8.943925858E0,1.048893569E1
6.679110110E-1,-2.043674231E0,5.109892368E0,8.963078499E0,1.051781254E1
6.702797090E-1,-2.012551069E0,5.126651287E0,8.979836464E0,1.053424787E1
6.726484070E-1,-2.000580549E0,5.131439686E0,8.972654343E0,1.052817751E1
6.750179380E-1,-1.952698469E0,5.143410206E0,8.948713303E0,1.050462611E1
6.773874170E-1,-1.864116669E0,5.138621807E0,8.929560661E0,1.046983374E1
6.797561150E-1,-1.765958786E0,5.124257565E0,8.900832176E0,1.042120144E1
6.821248130E-1,-1.636677504E0,5.117074966E0,8.879284859E0,1.037809564E1
6.844943440E-1,-1.528943062E0,5.105104446E0,8.829009056E0,1.031266984E1
6.868638240E-1,-1.397267699E0,5.093133926E0,8.790703773E0,1.025518615E1
6.892324690E-1,-1.306291938E0,5.064404964E0,8.745215416E0,1.018986697E1
6.916012190E-1,-1.184192896E0,5.023705006E0,8.730851173E0,1.014237088E1
6.939706990E-1,-1.078852534E0,5.009340286E0,8.678180695E0,1.007810662E1
6.963401780E-1,-1.016605854E0,4.966247082E0,8.620722771E0,1.000069791E1
6.987088760E-1,-9.591475725E-1,4.930335522E0,8.596781731E0,9.956547019E0
7.010776260E-1,-9.208420515E-1,4.937517643E0,8.527352333E0,9.896603881E0
7.034471050E-1,-8.873246908E-1,4.899211884E0,8.512988091E0,9.862078301E0
7.058165840E-1,-8.801423311E-1,4.887241364E0,8.448347092E0,9.799711590E0
7.081852820E-1,-8.514131308E-1,4.860906601E0,8.436376572E0,9.773728406E0
7.105539800E-1,-8.538073301E-1,4.808236599E0,8.400465965E0,9.716787256E0
7.129235110E-1,-8.705658913E-1,4.808236599E0,8.386100769E0,9.705859584E0
7.152929900E-1,-9.256302118E-1,4.805841923E0,8.393282890E0,9.715971673E0
7.176616880E-1,-1.002241254E0,4.832177639E0,8.417223930E0,9.757258168E0
7.200303860E-1,-1.088428855E0,4.872877121E0,8.436376572E0,9.803165737E0
7.223999170E-1,-1.224892497E0,4.901606083E0,8.479470253E0,9.870537959E0
7.247693960E-1,-1.332627058E0,4.968640804E0,8.558475494E0,9.985528985E0
7.271380420E-1,-1.497819781E0,4.992581844E0,8.651845932E0,1.010068194E1
7.295067920E-1,-1.646253943E0,5.016522884E0,8.764369011E0,1.023180424E1
7.318762710E-1,-1.744411945E0,5.066799164E0,8.838585854E0,1.033615144E1
7.342457510E-1,-1.847358227E0,5.081163406E0,8.893650055E0,1.040807212E1
7.366144490E-1,-1.955092430E0,5.069192886E0,8.958291054E0,1.047712182E1
7.389831990E-1,-2.010157108E0,5.081163406E0,8.994201660E0,1.052400193E1
7.413526780E-1,-2.031703711E0,5.059616566E0,9.020536423E0,1.054028544E1
7.437221570E-1,-2.055644751E0,5.052434444E0,9.010960579E0,1.053328912E1
7.460908550E-1,-2.031703711E0,5.033281326E0,9.008566856E0,1.051741497E1
7.484595530E-1,-1.986216068E0,5.009340286E0,8.987019539E0,1.047879118E1
7.508290840E-1,-1.916787148E0,4.963852406E0,8.955895424E0,1.041738770E1
7.531985630E-1,-1.804264545E0,4.959064484E0,8.922378540E0,1.036612415E1
7.555672090E-1,-1.674983025E0,4.932729721E0,8.864920616E0,1.028222778E1
7.579359590E-1,-1.528943062E0,4.901606083E0,8.807461739E0,1.019484141E1
7.603054380E-1,-1.390085340E0,4.872877121E0,8.738032341E0,1.010101371E1
7.626749170E-1,-1.267986298E0,4.853724003E0,8.682969093E0,1.002797977E1
7.650436150E-1,-1.121946335E0,4.832177639E0,8.649451256E0,9.971043643E0
7.674123650E-1,-9.878767729E-1,4.817812443E0,8.606357574E0,9.912447122E0
7.697818440E-1,-8.418368101E-1,4.824995041E0,8.568051338E0,9.869182848E0
7.721513240E-1,-7.676196098E-1,4.813024521E0,8.548899651E0,9.840636673E0
7.745200210E-1,-6.479146481E-1,4.832177639E0,8.498623848E0,9.797772269E0
7.768887190E-1,-5.760917664E-1,4.860906601E0,8.407648087E0,9.728763593E0
7.792582510E-1,-5.401802063E-1,4.892030239E0,8.333430290E0,9.678316740E0
7.816277300E-1,-4.899041951E-1,4.947093964E0,8.235272408E0,9.619431191E0
7.839964280E-1,-4.946923554E-1,4.961458683E0,8.137114525E0,9.543239784E0
7.863651260E-1,-5.329979658E-1,4.923152924E0,8.084444046E0,9.480493504E0
7.887346570E-1,-5.689094067E-1,4.896818161E0,8.082050323E0,9.466890907E0
7.911041360E-1,-6.239737272E-1,4.863300323E0,8.053320885E0,9.428521121E0
7.934727820E-1,-7.005848885E-1,4.836965561E0,8.053320885E0,9.420352026E0
7.958415320E-1,-7.891665697E-1,4.836965561E0,8.046138763E0,9.421219067E0
7.982110110E-1,-8.992952108E-1,4.860906601E0,8.074867249E0,9.467873359E0
8.005804900E-1,-9.759062529E-1,4.880059719E0,8.105991364E0,9.511806971E0
8.029491880E-1,-1.074064255E0,4.937517643E0,8.060503006E0,9.513380220E0
8.053179380E-1,-1.105187535E0,4.956670284E0,8.010227203E0,9.484395587E0
8.076874170E-1,-1.160251856E0,5.011734486E0,7.921646595E0,9.445430202E0
8.100568960E-1,-1.177010536E0,4.999763966E0,7.725329876E0,9.277053153E0
8.124255940E-1,-1.136310935E0,4.992581844E0,7.596048832E0,9.160624098E0
8.147942920E-1,-1.102793574E0,5.016522884E0,7.507466793E0,9.096357137E0
8.171638240E-1,-1.035758734E0,5.018917084E0,7.421278954E0,9.018741939E0
8.195333030E-1,-9.495711327E-1,5.030887604E0,7.339879990E0,8.949042054E0
8.219019490E-1,-8.777481318E-1,4.999763966E0,7.270451069E0,8.867217164E0
8.242706990E-1,-8.490190506E-1,5.026099682E0,7.210598469E0,8.830359089E0
8.266402300E-1,-7.843784094E-1,5.028493404E0,7.160322666E0,8.784714912E0
8.290097090E-1,-7.245259285E-1,5.033281326E0,7.122017384E0,8.751113663E0
8.313783550E-1,-6.383383274E-1,5.030887604E0,7.059770107E0,8.692390918E0
8.337471050E-1,-5.401802063E-1,5.021310806E0,7.007100105E0,8.637407525E0
8.361165840E-1,-4.444163144E-1,5.004552364E0,6.889789104E0,8.527147479E0
8.384860630E-1,-3.175290525E-1,4.987793446E0,6.801207542E0,8.440102617E0
8.408547610E-1,-1.978241503E-1,4.980611324E0,6.683896542E0,8.337871223E0
8.432235110E-1,-4.699590802E-2,4.966247082E0,6.590527058E0,8.252324860E0
8.455929900E-1,7.270902395E-2,4.990188122E0,6.466033459E0,8.168038490E0
8.479624690E-1,1.229850948E-1,4.939911366E0,6.348723412E0,8.045131359E0
8.503311670E-1,1.421378851E-1,4.836965561E0,6.260141373E0,7.912383271E0
8.526998650E-1,1.373496801E-1,4.750778198E0,6.248170853E0,7.850375623E0
8.550693960E-1,1.349555850E-1,4.580797195E0,6.298447132E0,7.789245935E0
8.574388760E-1,1.158027947E-1,4.437150955E0,6.418151855E0,7.803485896E0
8.598075740E-1,-1.508027315E-3,4.145071030E0,6.578556538E0,7.775539996E0
8.621762710E-1,-4.699590802E-2,3.979878187E0,6.789237022E0,7.869903325E0
8.645457510E-1,8.707362413E-2,4.025365829E0,6.949641705E0,8.031729060E0
8.669152300E-1,1.852316558E-1,4.101977348E0,7.117228508E0,8.216779817E0
8.692839280E-1,2.762074172E-1,4.173800468E0,7.272845268E0,8.389945124E0
8.716526780E-1,3.240893781E-1,4.224075794E0,7.392549992E0,8.520425202E0
8.740221570E-1,2.857838273E-1,4.264776230E0,7.502678871E0,8.634823619E0
8.763916360E-1,2.307195365E-1,4.283928394E0,7.612807274E0,8.738427123E0
8.787603340E-1,1.565024853E-1,4.305475712E0,7.725329876E0,8.845469791E0
8.811290840E-1,5.355623364E-2,4.291110992E0,7.883340359E0,8.975720419E0
8.834985630E-1,-5.657231808E-2,4.341386795E0,8.070079803E0,9.163898066E0
8.858680420E-1,-1.834595203E-1,4.346175194E0,8.204148293E0,9.286061890E0
8.882367400E-1,-2.504943311E-1,4.350963593E0,8.364553452E0,9.431828351E0
8.906054380E-1,-3.294995725E-1,4.355751514E0,8.491440773E0,9.549120778E0
8.929749690E-1,-4.348399341E-1,4.322234631E0,8.575234413E0,9.612775001E0
8.953444490E-1,-5.138452053E-1,4.336598873E0,8.613539696E0,9.657287030E0
8.977130940E-1,-6.072150469E-1,4.295898914E0,8.623116493E0,9.653061465E0
9.000818440E-1,-7.197377682E-1,4.231258392E0,8.611145973E0,9.621507419E0
9.024513240E-1,-8.226839304E-1,4.169012070E0,8.572840691E0,9.568232229E0
9.048208030E-1,-9.232360125E-1,4.080430031E0,8.515381813E0,9.487570890E0
9.071895010E-1,-1.014211774E0,4.011001587E0,8.400465965E0,9.364004896E0
9.095582510E-1,-1.136310935E0,3.941572428E0,8.271183968E0,9.232533778E0
9.119277300E-1,-1.263198137E0,3.917631388E0,8.158660889E0,9.138230284E0
9.142972090E-1,-1.358962059E0,3.900872707E0,8.038956642E0,9.038164064E0
9.166659070E-1,-1.433179140E0,3.922419786E0,7.964739323E0,8.993133598E0
9.190346050E-1,-1.528943062E0,3.948754787E0,7.945586681E0,9.003481492E0
9.214041360E-1,-1.595977783E0,3.999031067E0,7.971922398E0,9.060405138E0
9.237736150E-1,-1.617524743E0,4.044518948E0,8.003045082E0,9.111709521E0
9.261423130E-1,-1.653436184E0,4.082824707E0,8.091627121E0,9.212911498E0
9.285110110E-1,-1.667800784E0,4.137888908E0,8.211331367E0,9.345033274E0
9.308805420E-1,-1.629495144E0,4.192953110E0,8.326248169E0,9.463747607E0
9.332500210E-1,-1.603160143E0,4.267169952E0,8.405253410E0,9.561754376E0
9.356186670E-1,-1.555278182E0,4.315052032E0,8.532140732E0,9.686897839E0
9.379874170E-1,-1.536125422E0,4.367722034E0,8.603963852E0,9.770612624E0
9.403568960E-1,-1.493031502E0,4.398845673E0,8.666210175E0,9.832709957E0
9.427263760E-1,-1.445149660E0,4.439545155E0,8.711697578E0,9.883910836E0
9.450950740E-1,-1.392479420E0,4.444333553E0,8.776338577E0,9.935553255E0
9.474638240E-1,-1.311079979E0,4.398845673E0,8.840979576E0,9.961510620E0
9.498333030E-1,-1.184192896E0,4.372510433E0,8.826614380E0,9.921203642E0
9.522027820E-1,-1.088428855E0,4.317446232E0,8.807461739E0,9.868961527E0
9.545714800E-1,-9.328125715E-1,4.276746273E0,8.747610092E0,9.781685964E0
9.569401780E-1,-8.322602510E-1,4.262382030E0,8.642269135E0,9.672092508E0
9.593097090E-1,-6.862202883E-1,4.240835190E0,8.527352333E0,9.548367358E0
9.616791880E-1,-5.473625660E-1,4.183376312E0,8.410041809E0,9.408987532E0
9.640478340E-1,-3.989284337E-1,4.169012070E0,8.235272408E0,9.239021439E0
9.664165840E-1,-2.576766312E-1,4.164223671E0,8.077261925E0,9.091166934E0
9.687861150E-1,-1.140306890E-1,4.142676830E0,7.938404560E0,8.955056743E0
9.711555940E-1,4.158574343E-2,4.123524189E0,7.847428799E0,8.864948949E0
9.735242400E-1,1.972021610E-1,4.111553669E0,7.751664639E0,8.776791380E0
9.758929900E-1,3.743654788E-1,4.087612629E0,7.677447796E0,8.705856143E0
9.782624690E-1,5.443464518E-1,4.099583149E0,7.639142036E0,8.686736217E0
9.806319490E-1,6.544750333E-1,4.087612629E0,7.612807274E0,8.665549559E0
9.830006460E-1,7.119333744E-1,4.054095268E0,7.579289913E0,8.624857863E0
9.853693960E-1,7.382684946E-1,4.032548428E0,7.600836754E0,8.635925344E0
9.877388760E-1,7.191156745E-1,3.970301867E0,7.619989872E0,8.622335525E0
9.901083550E-1,6.736278534E-1,3.903266907E0,7.624777794E0,8.592235066E0
9.924770530E-1,5.371642113E-1,3.843414545E0,7.641536236E0,8.570499215E0
9.948457510E-1,4.294297397E-1,3.773985863E0,7.660689354E0,8.550645623E0
9.972152820E-1,3.001483977E-1,3.687798023E0,7.694206715E0,8.537608581E0
9.995847610E-1,1.469260901E-1,3.568093300E0,7.687024117E0,8.476037803E0
1.001953407E0,4.637393355E-2,3.467540979E0,7.639142036E0,8.389426800E0
1.004322157E0,-9.008967876E-2,3.371777058E0,7.545772076E0,8.265329570E0
1.006691636E0,-1.571244597E-1,3.326289177E0,7.440432072E0,8.151620526E0
1.009061115E0,-2.720411718E-1,3.314318657E0,7.296786308E0,8.018840626E0
1.011429813E0,-3.582287729E-1,3.328683138E0,7.160322666E0,7.904345638E0
1.013798563E0,-4.635690749E-1,3.357412577E0,7.052587986E0,7.824711675E0
1.016168042E0,-5.186333656E-1,3.400506258E0,6.952036381E0,7.756496195E0
1.018537521E0,-5.760917664E-1,3.472329140E0,6.892183781E0,7.738937178E0
1.020906219E0,-5.665153265E-1,3.558516741E0,6.896971703E0,7.781529392E0
1.023274917E0,-5.808799267E-1,3.637521982E0,6.877818584E0,7.802139203E0
1.025644449E0,-5.138452053E-1,3.740468264E0,6.920912743E0,7.883791785E0
1.028013928E0,-5.066628456E-1,3.826655865E0,6.987946987E0,7.983195190E0
1.030382626E0,-4.731455147E-1,3.891296387E0,7.057376385E0,8.072955821E0
1.032751324E0,-4.420221746E-1,3.931996346E0,7.088499546E0,8.118054242E0
1.035120855E0,-4.180811942E-1,3.982272148E0,7.088499546E0,8.141259679E0
1.037490334E0,-3.606228530E-1,3.977483988E0,7.059770107E0,8.111151687E0
1.039858980E0,-3.510464132E-1,3.977483988E0,7.028647423E0,8.083656169E0
1.042227730E0,-2.911939919E-1,3.946360826E0,7.045405865E0,8.080612694E0
1.044597209E0,-2.074005306E-1,3.943966866E0,7.031041145E0,8.064330673E0
1.046966688E0,-1.020601988E-1,3.910449266E0,6.983159065E0,8.004157687E0
1.049335386E0,4.158574343E-2,3.884114265E0,6.968794823E0,7.978231275E0
1.051704136E0,1.995962560E-1,3.864961386E0,6.923306465E0,7.931578506E0
1.054073615E0,3.767595589E-1,3.836232185E0,6.911336422E0,7.913608297E0
1.056443094E0,5.467405915E-1,3.785956144E0,6.901759624E0,7.890923591E0
1.058811792E0,6.712337136E-1,3.730891705E0,6.961612225E0,7.926799630E0
1.061180490E0,8.029091358E-1,3.692586184E0,7.052587986E0,8.001178232E0
1.063550021E0,9.106435776E-1,3.673433542E0,7.193839550E0,8.128635383E0
1.065919501E0,9.633136988E-1,3.673433542E0,7.325515270E0,8.251379354E0
1.068288199E0,9.752842188E-1,3.694980621E0,7.466767311E0,8.387888601E0
1.070656896E0,9.345846176E-1,3.714133263E0,7.605624676E0,8.515501219E0
1.073026376E0,8.986731768E-1,3.697374582E0,7.737300396E0,8.622297240E0
1.075395855E0,8.436088562E-1,3.656674862E0,7.892917156E0,8.739627462E0
1.077764553E0,8.005150557E-1,3.611186981E0,8.062897682E0,8.870840704E0
1.080133303E0,7.550271749E-1,3.580063820E0,8.218513489E0,8.996159567E0
1.082502782E0,6.975687742E-1,3.501058578E0,8.350188255E0,9.081280596E0
1.084872261E0,6.448986530E-1,3.426841259E0,8.426800728E0,9.119764569E0
1.087240959E0,5.970166922E-1,3.345442057E0,8.481864929E0,9.137310554E0
1.089609709E0,5.419523716E-1,3.266436815E0,8.465106010E0,9.089628244E0
1.091979188E0,4.653412104E-1,3.137155294E0,8.429194450E0,9.006087101E0
1.094348667E0,3.671831787E-1,3.027026653E0,8.268789291E0,8.813091977E0
1.096717365E0,2.666310072E-1,2.883380890E0,8.103597641E0,8.605421092E0
1.099086063E0,1.205909997E-1,2.780434847E0,7.897705555E0,8.373715613E0
1.101455594E0,-6.375458837E-2,2.730158567E0,7.698994637E0,8.168987016E0
1.103825074E0,-2.313415110E-1,2.696641207E0,7.512255192E0,7.984946509E0
1.106193719E0,-3.725933135E-1,2.718188047E0,7.363820553E0,7.858322033E0
1.108562469E0,-5.234215260E-1,2.773252249E0,7.215386868E0,7.747690351E0
1.110932001E0,-6.670675278E-1,2.847469568E0,7.126805305E0,7.703532689E0
1.113301480E0,-7.843784094E-1,2.936050892E0,7.057376385E0,7.683892618E0
1.115670126E0,-8.801423311E-1,3.091667414E0,7.002312183E0,7.704896744E0
1.118038876E0,-9.567533731E-1,3.163490534E0,7.021464825E0,7.760413498E0
1.120408355E0,-1.040546894E0,3.225737095E0,7.035829067E0,7.809674021E0
1.122777834E0,-1.133916736E0,3.199402094E0,7.126805305E0,7.893877044E0
1.125146532E0,-1.165040016E0,3.175461054E0,7.270451069E0,8.018748649E0
1.127515282E0,-1.102793574E0,3.211372614E0,7.421278954E0,8.161154884E0
1.129884761E0,-1.112369895E0,3.237707615E0,7.514649391E0,8.257728069E0
1.132254240E0,-1.208133817E0,3.278407335E0,7.605624676E0,8.369771125E0
1.134622938E0,-1.323050499E0,3.290377855E0,7.720541477E0,8.496105564E0
1.136991636E0,-1.454725981E0,3.290377855E0,7.909676075E0,8.689406753E0
1.139361167E0,-1.579219103E0,3.276012897E0,8.122749329E0,8.899733150E0
1.141730646E0,-1.746806145E0,3.225737095E0,8.376524925E0,9.144554737E0
1.144099292E0,-1.885663748E0,3.173066854E0,8.647057533E0,9.401897948E0
1.146468042E0,-2.002974510E0,3.101243973E0,8.886467934E0,9.622833959E0
1.148837521E0,-2.153802872E0,3.007874012E0,9.056448936E0,9.782915732E0
1.151207001E0,-2.256748915E0,2.907321930E0,9.240794182E0,9.946743868E0
1.153575699E0,-2.345330715E0,2.790010929E0,9.382045746E0,1.006516366E1
1.155944449E0,-2.409971237E0,2.706217527E0,9.559208870E0,1.022301565E1
1.158313928E0,-2.493764877E0,2.576936245E0,9.710038185E0,1.035105334E1
1.160683407E0,-3.650114536E0,1.408616185E0,8.642269135E0,9.486640685E0
1.163052105E0,-4.641271114E0,1.285650581E-2,6.173953533E0,7.723941033E0
1.165420803E0,-3.865583658E0,1.190753102E0,6.415757656E0,7.584363933E0
1.167790334E0,-2.725992441E0,2.928868771E0,8.173026085E0,9.099871562E0
1.170159813E0,-2.067615271E0,3.711739063E0,9.396410942E0,1.031235077E1
1.172528511E0,-1.864116669E0,3.718921185E0,9.880018234E0,1.072007771E1
1.174897209E0,-1.856934547E0,3.378959179E0,9.908747673E0,1.063244335E1
1.177266740E0,-1.813840866E0,2.943233252E0,9.518509865E0,1.012692800E1
1.179636219E0,-1.785111427E0,2.531448603E0,8.943925858E0,9.465128873E0
1.182004865E0,-1.660618544E0,2.174727678E0,8.412435532E0,8.846251522E0
1.184373615E0,-1.521760821E0,1.894618154E0,8.151478767E0,8.505994359E0
1.186743094E0,-1.399661779E0,1.719848871E0,8.139508247E0,8.436144128E0
1.189112574E0,-1.260804057E0,1.650419950E0,8.292730331E0,8.548853095E0
1.191481271E0,-1.157857776E0,1.624084949E0,8.596781731E0,8.825131312E0
1.193850021E0,-1.117158055E0,1.643237710E0,8.884072304E0,9.103571442E0
1.196219501E0,-1.059699655E0,1.624084949E0,9.137847900E0,9.341353196E0
1.198588980E0,-1.062093735E0,1.569020748E0,9.398804665E0,9.587877676E0
1.200957678E0,-1.121946335E0,1.492409468E0,9.698066711E0,9.876160567E0
1.203326376E0,-1.239257216E0,1.418192506E0,9.970993996E0,1.014730258E1
1.205695907E0,-1.361356139E0,1.264970183E0,1.018167496E1,1.034987657E1
1.208065386E0,-1.509790301E0,1.094989181E0,1.027743912E1,1.044529669E1
1.210434032E0,-1.658224463E0,9.944369793E-1,1.027983284E1,1.046009448E1
1.212802782E0,-1.797081947E0,9.489491582E-1,1.016012764E1,1.036138030E1
1.215172313E0,-1.916787148E0,9.920428991E-1,9.915929794E0,1.014809764E1
1.217541792E0,-2.019733191E0,1.054289460E0,9.717219353E0,9.980741474E0
1.219910438E0,-2.122679472E0,1.217088103E0,9.590332985E0,9.897553150E0
1.222279188E0,-2.247172832E0,1.379886866E0,9.652578354E0,1.000630513E1
1.224648667E0,-2.527282238E0,1.411010146E0,9.839318275E0,1.025623173E1
1.227018146E0,-3.286211491E0,1.066259980E0,9.884806633E0,1.047117465E1
1.229386844E0,-3.970924139E0,6.448985934E-1,9.688490868E0,1.049051896E1
1.231755594E0,-4.200757027E0,7.239038348E-1,9.631031990E0,1.053219700E1
1.234125074E0,-3.879947901E0,1.367916346E0,9.968599319E0,1.078416261E1
1.236494553E0,-3.444221973E0,2.076569557E0,1.047614861E1,1.122160843E1
1.238863251E0,-3.223964930E0,2.497931004E0,1.092145061E1,1.165811703E1
1.241231949E0,-3.247905970E0,2.572148085E0,1.121831989E1,1.195891049E1
1.243601480E0,-3.322123051E0,2.483566523E0,1.140266514E1,1.213364646E1
1.245970959E0,-3.446616173E0,2.253732920E0,1.149603462E1,1.221135894E1
1.248339605E0,-3.523227215E0,1.995170236E0,1.147688198E1,1.217015424E1
1.250708355E0,-3.542380095E0,1.739001751E0,1.142181778E1,1.208430822E1
1.253077886E0,-3.472951174E0,1.542685628E0,1.136675358E1,1.198517233E1
1.255447365E0,-3.370005131E0,1.446921587E0,1.136914730E1,1.194604650E1
1.257816011E0,-3.195235729E0,1.418192506E0,1.131168938E1,1.183955734E1
1.260184761E0,-3.013284206E0,1.444527507E0,1.128774834E1,1.177199235E1
1.262554240E0,-2.826544523E0,1.523532867E0,1.118240738E1,1.163429160E1
1.264923719E0,-2.658957720E0,1.592961669E0,1.104594517E1,1.147259725E1
1.267292417E0,-2.479400396E0,1.664784670E0,1.092384529E1,1.132472208E1
1.269661115E0,-2.378848076E0,1.741395712E0,1.078738213E1,1.118297770E1
1.272030646E0,-2.239990234E0,1.767730832E0,1.070119381E1,1.107510621E1
1.274400126E0,-2.168167591E0,1.798854113E0,1.065570641E1,1.102183768E1
1.276768824E0,-2.093950272E0,1.791671872E0,1.064373589E1,1.099471825E1
1.279137521E0,-2.055644751E0,1.796460152E0,1.069401169E1,1.103697560E1
1.281507053E0,-2.038886070E0,1.806036472E0,1.071077061E1,1.105167097E1
1.283876532E0,-2.043674231E0,1.810824633E0,1.072034645E1,1.106261806E1
1.286245178E0,-2.077191830E0,1.846736073E0,1.073710537E1,1.109101401E1
1.288613928E0,-2.144226551E0,1.818006992E0,1.073231792E1,1.109439070E1
1.290983407E0,-2.242384434E0,1.691119790E0,1.070837688E1,1.107056952E1
1.293352886E0,-2.333360195E0,1.537897348E0,1.062697697E1,1.098828183E1
1.295721584E0,-2.500947237E0,1.420586586E0,1.055754757E1,1.094233129E1
1.298090334E0,-2.759509802E0,1.339187264E0,1.041629696E1,1.085852473E1
1.300459813E0,-3.018072605E0,1.286517024E0,1.028222656E1,1.079296398E1
1.302829292E0,-3.283817530E0,1.269758344E0,1.012182236E1,1.071667074E1
1.305197990E0,-3.501680613E0,1.267364264E0,9.923111916E0,1.059887397E1
1.307566688E0,-3.707573175E0,1.293699384E0,9.772283554E0,1.053172744E1
1.309936219E0,-3.872765779E0,1.358340025E0,9.590332985E0,1.043158134E1
1.312305699E0,-4.030776024E0,1.442133546E0,9.403593063E0,1.033220533E1
1.314674396E0,-4.157663345E0,1.547473788E0,9.154606819E0,1.017288876E1
1.317043094E0,-4.188786507E0,1.631267309E0,8.934350014E0,1.000147867E1
1.319412626E0,-4.145692825E0,1.717454910E0,8.678180695E0,9.769710361E0
1.321782105E0,-4.014017105E0,1.770125031E0,8.477076530E0,9.544972627E0
1.324150751E0,-3.822489977E0,1.834765673E0,8.208937645E0,9.239288498E0
1.326519501E0,-3.566321135E0,1.846736073E0,7.971922398E0,8.926400578E0
1.328888980E0,-3.274240971E0,1.853918552E0,7.732511997E0,8.599384264E0
1.331258459E0,-2.965402365E0,1.789277792E0,7.581683636E0,8.335289614E0
1.333627157E0,-2.625440359E0,1.743789911E0,7.447614193E0,8.087069772E0
1.335995907E0,-2.283084393E0,1.655208230E0,7.428461552E0,7.945705107E0
1.338365386E0,-1.935939789E0,1.571414709E0,7.433249474E0,7.840306422E0
1.340734865E0,-1.593583822E0,1.475650907E0,7.493102074E0,7.801514833E0
1.343103563E0,-1.306291938E0,1.403827906E0,7.629565716E0,7.866854799E0
1.345472261E0,-2.326178074E0,1.473256707E0,8.462711334E0,8.899386096E0
1.347841792E0,-2.149014473E0,1.422980666E0,8.295125008E0,8.686324659E0
1.350211271E0,-1.296715498E0,1.332004905E0,8.017409325E0,8.230100876E0
1.352579917E0,-3.845638335E-1,1.248211503E0,8.132326126E0,8.236543542E0
1.354948667E0,-1.471484661E0,1.257787824E0,9.722007751E0,9.912856906E0
1.357318146E0,-1.636677504E0,1.296093345E0,9.439503670E0,9.667616084E0
1.359687626E0,-1.260804057E0,1.305669904E0,9.247975349E0,9.424407081E0
1.362056324E0,-8.155016899E-1,1.281728864E0,8.922378540E0,9.050785087E0
1.364425074E0,-4.460182786E-2,1.159629703E0,9.185729980E0,9.258745360E0
1.366794553E0,-1.538519382E0,1.140477061E0,1.097890949E1,1.114469306E1
1.369164032E0,-1.775535345E0,1.085412741E0,1.074428749E1,1.094396456E1
1.371532730E0,-8.897186518E-1,1.092594981E0,1.030377388E1,1.039966919E1
1.373901428E0,-5.665153265E-1,1.006407499E0,1.061740112E1,1.068002820E1
1.376270959E0,-1.165040016E0,9.944369793E-1,1.088314533E1,1.099040834E1
1.378640438E0,-1.217710257E0,1.023166180E0,1.154152298E1,1.165059827E1
1.381009136E0,-1.562460423E0,1.071048141E0,1.230045128E1,1.244546216E1
1.383377834E0,-1.169828296E0,1.229058623E0,1.202273655E1,1.214188113E1
1.385747365E0,-1.167434216E0,1.320034385E0,1.201076603E1,1.213935311E1
1.388116844E0,-1.203345656E0,1.370310545E0,1.190303135E1,1.204192456E1
1.390485490E0,-1.270380378E0,1.408616185E0,1.173783875E1,1.189011877E1
1.392854240E0,-1.349385619E0,1.329610825E0,1.219271755E1,1.233900595E1
1.395223719E0,-1.138705015E0,1.284122944E0,1.164446831E1,1.177027030E1
1.397593199E0,-9.950590134E-1,1.305669904E0,1.080653477E1,1.093051280E1
1.399961896E0,-1.150675416E0,1.334398985E0,1.011224556E1,1.026460836E1
1.402330646E0,-1.665406704E0,1.461286306E0,9.583149910E0,9.835939170E0
1.404700126E0,-1.979033470E0,1.504379988E0,9.405986786E0,9.728942391E0
1.407069605E0,-2.280689955E0,1.427768826E0,1.000690556E1,1.036234671E1
1.409438303E0,-2.350119114E0,1.353551745E0,9.681307793E0,1.005399835E1
1.411807001E0,-2.321389675E0,1.252999663E0,9.204882622E0,9.575422824E0
1.414176532E0,-2.199290752E0,1.140477061E0,8.726062775E0,9.070928248E0
1.416546011E0,-2.053250790E0,9.968310595E-1,8.177814484E0,8.490356924E0
1.418914709E0,-1.880875587E0,8.651556969E-1,7.629565716E0,7.905470281E0
1.421283407E0,-1.854540586E0,7.310861349E-1,7.926434040E0,8.173259100E0
1.423652938E0,-1.727653265E0,7.813621759E-1,7.277633190E0,7.520588907E0
1.426022417E0,-1.682165384E0,8.244559765E-1,6.813178062E0,7.066031655E0
1.428391063E0,-1.770746946E0,8.675497770E-1,6.499551296E0,6.792080272E0
1.430759813E0,-1.864116669E0,8.986730576E-1,6.231412411E0,6.566052456E0
1.433129292E0,-1.962275028E0,9.561314583E-1,6.403787136E0,6.765589430E0
1.435498771E0,-2.335754395E0,1.059077740E0,7.011888027E0,7.466188315E0
1.437867469E0,-2.412365437E0,1.205117583E0,6.956824303E0,7.461180856E0
1.440236219E0,-2.340542555E0,1.312852144E0,7.169898510E0,7.655662274E0
1.442605699E0,-2.156197071E0,1.406221986E0,7.588866234E0,8.013584516E0
1.444975178E0,-2.139438391E0,1.317640424E0,8.292730331E0,8.665030252E0
1.447343876E0,-2.038886070E0,1.348763585E0,8.915196419E0,9.244292661E0
1.449712574E0,-1.670194864E0,1.427768826E0,9.089965820E0,9.351767390E0
1.452082105E0,-1.538519382E0,1.425374746E0,9.171364784E0,9.408117084E0
1.454451584E0,-1.399661779E0,1.320034385E0,9.355710983E0,9.551485323E0
1.456820282E0,-8.705658913E-1,7.478448153E-1,9.894382477E0,9.960720930E0
1.459188980E0,2.474782318E-1,-2.544907480E-2,9.135454178E0,9.138841073E0
1.461558511E0,6.975687742E-1,-4.348399639E-1,8.740427971E0,8.778995905E0
1.463927990E0,1.253792048E-1,-1.475481093E-1,9.283887863E0,9.285906754E0
1.466296636E0,-4.994805753E-1,1.445319355E-1,9.872836113E0,9.886519268E0
1.468665386E0,-9.806944132E-1,3.528185487E-1,1.026786232E1,1.032062203E1
1.471034865E0,-1.272774577E0,5.706815124E-1,1.016730976E1,1.026254453E1
1.473404344E0,-1.528943062E0,7.358742952E-1,1.023195076E1,1.037169197E1
1.475773042E0,-1.531337142E0,7.478448153E-1,1.022716236E1,1.036817801E1
1.478141792E0,-1.445149660E0,6.353222132E-1,1.080414104E1,1.091886238E1
1.480511271E0,-1.227286696E0,5.826520324E-1,1.051206112E1,1.059948796E1
1.482880751E0,-9.160537720E-1,4.246414900E-1,1.025828552E1,1.030785607E1
1.485249449E0,-5.353920460E-1,2.809955776E-1,1.003084660E1,1.004905401E1
1.487618146E0,-1.978241503E-1,1.158027500E-1,1.025349808E1,1.025606004E1
1.489987678E0,1.277732998E-1,8.860118687E-4,1.028222656E1,1.028302047E1
1.492357157E0,4.725235105E-1,-7.572515309E-2,9.738766670E0,9.750517372E0
1.494725803E0,7.430566549E-1,-1.379717141E-1,9.480203629E0,9.510280239E0
1.497094553E0,1.013589859E0,-1.068484336E-1,9.133059502E0,9.189752818E0
1.499464032E0,1.255393863E0,-7.093694806E-2,9.262340546E0,9.347298978E0
1.501833511E0,1.243423343E0,-3.741956502E-2,8.998990059E0,9.084565147E0
1.504202209E0,1.152447581E0,-6.614874303E-2,8.955895424E0,9.029981945E0
1.506570959E0,8.819143772E-1,-9.008973837E-2,8.934350014E0,8.978223616E0
1.508940438E0,5.706815720E-1,-1.786713898E-1,8.848161697E0,8.868346314E0
1.511309917E0,2.355077416E-1,-2.528884709E-1,8.987019539E0,8.993660916E0
1.513678615E0,-3.247113526E-1,-4.276576638E-1,8.896043777E0,8.912234480E0
1.516047313E0,-7.795901299E-1,-5.066629052E-1,8.730851173E0,8.780218123E0
1.518416844E0,-1.320656538E0,-4.061107635E-1,8.280760765E0,8.395240228E0
1.520786324E0,-1.921575308E0,-3.318937123E-1,8.723669052E0,8.938960053E0
1.523155021E0,-2.457853317E0,-2.409179509E-1,8.623116493E0,8.969795006E0
1.525523719E0,-2.886397123E0,-5.896645412E-2,8.189785004E0,8.683740197E0
1.527893251E0,-3.171294689E0,5.355618522E-2,8.225695610E0,8.816010806E0
1.530262730E0,-3.322123051E0,1.565024406E-1,8.946319580E0,9.544507772E0
1.532631376E0,-3.398734331E0,2.546604872E-1,9.133059502E0,9.748283073E0
1.535000126E0,-3.252694368E0,4.629470706E-1,8.869709015E0,9.458650995E0
1.537369605E0,-3.056378126E0,6.257458329E-1,8.838585854E0,9.373025391E0
1.539739084E0,-2.816968203E0,7.143274546E-1,9.722007751E0,1.014706895E1
1.542107782E0,-2.539252758E0,7.646034956E-1,9.700460434E0,1.005640869E1
1.544476532E0,-2.105920792E0,8.029090762E-1,9.463444710E0,9.728121666E0
1.546846011E0,-1.694135904E0,7.789681554E-1,9.341345787E0,9.525630108E0
1.549215490E0,-1.375720739E0,6.425045133E-1,1.002126980E1,1.013564344E1
1.551584188E0,-1.121946335E0,4.940703511E-1,1.067725277E1,1.074739949E1
1.553952886E0,-8.777481318E-1,3.791536391E-1,1.104594517E1,1.108724961E1
1.556322417E0,-6.096091270E-1,2.450840771E-1,1.129014301E1,1.130924484E1
1.558691896E0,-3.342877328E-1,7.270897925E-2,1.137872410E1,1.138386564E1
1.561060594E0,-1.762772501E-1,-1.212130338E-1,1.134041882E1,1.134243647E1
1.563429292E0,-1.236070693E-1,-2.744353414E-1,1.132365990E1,1.132765938E1
1.565798824E0,-7.333099842E-2,-3.845638633E-1,1.133084202E1,1.133760326E1
1.568168303E0,2.482706308E-2,-5.545448661E-1,1.142660618E1,1.144008152E1
1.570536949E0,7.749721408E-2,-6.527029276E-1,1.149124718E1,1.151002991E1
1.572905699E0,5.834442377E-2,-6.335501075E-1,1.156306934E1,1.158055968E1
1.575275178E0,1.349555850E-1,-6.096091866E-1,1.159419250E1,1.161099204E1
1.577644657E0,3.001483977E-1,-6.120032668E-1,1.148167038E1,1.150188644E1
1.580013355E0,4.461884499E-1,-5.856682062E-1,1.132126617E1,1.134518220E1
1.582382053E0,6.018048525E-1,-6.910085082E-1,1.151279354E1,1.154920244E1
1.584751584E0,5.754697323E-1,-7.101613283E-1,1.183120918E1,1.186646558E1
1.587121063E0,5.539228916E-1,-7.676196694E-1,1.245367432E1,1.248959865E1
1.589489761E0,5.515288115E-1,-7.341023088E-1,1.237706375E1,1.241107559E1
1.591858459E0,5.922284722E-1,-7.053731084E-1,1.197964287E1,1.201499601E1
1.594227990E0,5.156173110E-1,-6.957967281E-1,1.180247974E1,1.183420983E1
1.596597469E0,3.432421684E-1,-5.856682062E-1,1.146730614E1,1.148738145E1
1.598966115E0,2.618428171E-1,-5.976386666E-1,1.131408405E1,1.133288276E1
1.601334865E0,1.110146046E-1,-6.694616079E-1,1.113452530E1,1.115518519E1
1.603704344E0,2.003884315E-2,-7.364963889E-1,1.098848534E1,1.101315752E1
1.606073824E0,-1.068483889E-1,-7.891665697E-1,1.078020000E1,1.080957504E1
1.608442521E0,-2.576766312E-1,-8.250780702E-1,1.051206112E1,1.054753905E1
1.610811271E0,-3.749874532E-1,-8.514131308E-1,1.039474964E1,1.043629915E1
1.613180751E0,-4.396281540E-1,-9.328125119E-1,1.015533924E1,1.020756226E1
1.615550230E0,-5.114510059E-1,-9.759062529E-1,9.891988754E0,9.953161139E0
1.617918928E0,-5.569388866E-1,-1.007029533E0,9.654973030E0,9.723311865E0
1.620287626E0,-6.215796471E-1,-1.011817694E0,9.384439468E0,9.459272723E0
1.622657157E0,-6.766438484E-1,-1.004635453E0,9.336557388E0,9.414799156E0
1.625026636E0,-6.838262081E-1,-9.256302118E-1,8.872102737E0,8.946430381E0
1.627395334E0,-6.742497683E-1,-8.394426107E-1,8.350188255E0,8.419318295E0
1.629764032E0,-6.550970078E-1,-8.705659509E-1,8.247242928E0,8.318897347E0
1.632133563E0,-6.263678074E-1,-9.304183722E-1,8.295125008E0,8.370610125E0
1.634503042E0,-6.622793674E-1,-1.014211893E0,8.692545891E0,8.776536549E0
1.636871688E0,-5.689094067E-1,-1.090823054E0,8.422011375E0,8.511394037E0
1.639240438E0,-4.731455147E-1,-1.179404616E0,8.469893456E0,8.564692468E0
1.641609917E0,-4.252634943E-1,-1.191375136E0,8.580022812E0,8.672774366E0
1.643979396E0,-3.510464132E-1,-1.153069615E0,8.611145973E0,8.695092759E0
1.646348094E0,-1.499421597E-1,-1.076458335E0,8.903225899E0,8.969318625E0
1.648716844E0,5.355623364E-2,-9.519653320E-1,8.814644814E0,8.866062793E0
1.651086324E0,2.331136465E-1,-7.891665697E-1,8.874496460E0,8.912564909E0
1.653455803E0,4.222474396E-1,-6.287619472E-1,8.891255379E0,8.923455424E0
1.655824501E0,6.281399727E-1,-5.808799863E-1,9.228823662E0,9.268396170E0
1.658193199E0,8.795202971E-1,-5.617271662E-1,9.319798470E0,9.378045472E0
1.660562730E0,1.157235742E0,-5.928505063E-1,9.525691986E0,9.614024865E0
1.662932209E0,1.434951186E0,-6.383383870E-1,9.671731949E0,9.798416183E0
1.665300855E0,1.736607552E0,-7.173436284E-1,1.019604015E1,1.036772022E1
1.667669605E0,2.069387436E0,-7.580432892E-1,1.046178436E1,1.069139495E1
1.670039136E0,2.387802362E0,-8.442308903E-1,1.084723377E1,1.113897690E1
1.672408615E0,2.689459085E0,-8.992951512E-1,1.088793373E1,1.125117873E1
1.674777261E0,2.892957211E0,-9.304183722E-1,1.140027046E1,1.179834931E1
1.677146011E0,3.031815052E0,-9.016891718E-1,1.128535366E1,1.172024544E1
1.679515490E0,2.998297691E0,-8.873246312E-1,1.158461666E1,1.199918652E1
1.681884969E0,2.857045650E0,-8.394426107E-1,1.175459766E1,1.212592017E1
1.684253667E0,2.632000446E0,-8.322603703E-1,1.230284595E1,1.260873119E1
1.686622365E0,2.418925762E0,-7.700138092E-1,1.217117023E1,1.243308119E1
1.688991896E0,2.217821598E0,-7.652255297E-1,1.215680599E1,1.238112413E1
1.691361376E0,2.033475876E0,-7.604373693E-1,1.217595863E1,1.236799328E1
1.693730074E0,1.901800513E0,-8.155016899E-1,1.226693439E1,1.244023985E1
1.696098771E0,1.887435794E0,-8.849304914E-1,1.189345551E1,1.207475878E1
1.698468303E0,2.021505356E0,-1.023788214E0,1.167559242E1,1.189344713E1
1.700837782E0,1.978411555E0,-1.112369895E0,1.157743454E1,1.179781631E1
1.703206428E0,1.944894195E0,-1.222498536E0,1.129732513E1,1.152851557E1
1.705575178E0,1.861100674E0,-1.323050618E0,1.151279354E1,1.173705984E1
1.707944657E0,1.825189233E0,-1.346991658E0,1.116804409E1,1.139609192E1
1.710314136E0,1.822795272E0,-1.375720739E0,1.109382629E1,1.132643686E1
1.712682834E0,1.818006992E0,-1.356567979E0,1.129253674E1,1.151810801E1
1.715051584E0,1.695907950E0,-1.287139177E0,1.142421150E1,1.162090528E1
1.717421063E0,1.504380107E0,-1.212921977E0,1.187669659E1,1.203288249E1
1.719790542E0,1.367916465E0,-1.121946216E0,1.166122818E1,1.179466835E1
1.722159240E0,1.169206262E0,-1.021394134E0,1.174023247E1,1.184243842E1
1.724527938E0,9.178258181E-1,-9.040833116E-1,1.176656818E1,1.183688716E1
1.726897469E0,6.903865337E-1,-7.748019695E-1,1.174741554E1,1.179316427E1
1.729266949E0,5.395582914E-1,-6.742498279E-1,1.180487347E1,1.183641726E1
1.731635594E0,3.791536689E-1,-5.138452053E-1,1.167798710E1,1.169543403E1
1.734004344E0,2.474782318E-1,-3.725934029E-1,1.157503986E1,1.158367900E1
1.736373876E0,1.588965803E-1,-2.217651755E-1,1.162292194E1,1.162612328E1
1.738743355E0,1.421378851E-1,-1.020602286E-1,1.164207458E1,1.164338955E1
1.741112001E0,6.313261390E-2,6.313257664E-2,1.171629143E1,1.171663161E1
1.743480751E0,3.200933337E-2,1.612906307E-1,1.186711979E1,1.186825899E1
1.745850230E0,-4.460182786E-2,3.336657584E-1,1.210174179E1,1.210642295E1
1.748219709E0,-1.690949500E-1,5.180113316E-1,1.231960487E1,1.233165006E1
1.750588407E0,-2.457061112E-1,7.047510743E-1,1.254704475E1,1.256922343E1
1.752957105E0,-2.840116918E-1,8.938848972E-1,1.253986168E1,1.257488862E1
1.755326636E0,-3.151349723E-1,1.051895380E0,1.256619644E1,1.261408288E1
1.757696115E0,-2.672530115E-1,1.245817423E0,1.232918167E1,1.239484594E1
1.760064813E0,-1.092424691E-1,1.209905863E0,1.190303135E1,1.196486362E1
1.762433511E0,-2.457061112E-1,1.470862627E0,1.172586918E1,1.182031372E1
1.764803042E0,-2.002182305E-1,1.576202989E0,1.138590717E1,1.149623353E1
1.767172521E0,3.919166327E-2,1.482833147E0,1.107946205E1,1.117831872E1
1.769541167E0,2.243292332E-2,1.573808908E0,1.106030846E1,1.117174117E1
1.771909917E0,1.588965803E-1,1.418192506E0,1.023195076E1,1.033098904E1
1.774279396E0,-5.657231808E-2,1.724637151E0,9.743555069E0,9.895172515E0
1.776648876E0,-1.068483889E-1,1.774913073E0,9.836924553E0,9.996340213E0
1.779017574E0,7.510311902E-2,1.676755071E0,9.810589790E0,9.953131170E0
1.781386324E0,1.158027947E-1,1.815612912E0,1.002845287E1,1.019214048E1
1.783755803E0,4.342179298E-1,1.494803667E0,9.537661552E0,9.663848669E0
1.786125282E0,7.262979746E-1,1.075836420E0,9.348528862E0,9.438216179E0
1.788493980E0,8.890967369E-1,1.399039626E0,9.571179390E0,9.713664592E0
1.790862678E0,1.853918433E0,1.619296789E0,1.035165596E1,1.064029684E1
1.793232209E0,3.146731615E0,1.506774187E0,1.020082760E1,1.078096341E1
1.795601688E0,3.242495775E0,1.296093345E0,9.906353951E0,1.050378434E1
1.797970386E0,2.354285002E0,9.920428991E-1,8.714091301E0,9.080869682E0
1.800339084E0,1.490015507E0,1.090201020E0,8.649451256E0,8.844302771E0
1.802708615E0,9.178258181E-1,1.583385229E0,9.583149910E0,9.756345382E0
1.805078094E0,1.382280946E0,1.885041714E0,1.002366352E1,1.029261450E1
1.807446740E0,1.863494873E0,1.700696111E0,1.068443584E1,1.097825805E1
1.809815490E0,2.581724405E0,1.463680387E0,9.614274025E0,1.006190470E1
1.812184969E0,2.830710649E0,1.451709867E0,9.386834145E0,9.911258224E0
1.814554449E0,2.679882526E0,1.897012234E0,1.035883808E1,1.086673604E1
1.816923146E0,2.794799328E0,1.803642392E0,1.122310734E1,1.170564682E1
1.819291896E0,2.873804569E0,1.648025990E0,1.055754757E1,1.106510520E1
1.821661376E0,2.950415611E0,1.561838388E0,9.872836113E0,1.042195684E1
1.824030855E0,3.086879253E0,1.439739347E0,9.820165634E0,1.039410054E1
1.826399553E0,2.971962452E0,1.564232469E0,1.081371689E1,1.132324410E1
1.828768251E0,3.084485292E0,1.408616185E0,1.097651577E1,1.148834834E1
1.831137782E0,3.182643175E0,1.365522265E0,1.037320232E1,1.093605025E1
1.833507261E0,2.955204010E0,1.501985908E0,9.669337273E0,1.022180394E1
1.835875907E0,2.967174530E0,1.580991149E0,9.547238350E0,1.012192757E1
1.838244657E0,2.993509531E0,1.698302031E0,8.919984818E0,9.560933963E0
1.840614136E0,2.892957211E0,1.894618154E0,8.512988091E0,9.188566025E0
1.842983615E0,2.706217766E0,2.093328476E0,8.917591095E0,9.551390979E0
1.845352313E0,2.600877285E0,2.268097401E0,9.267128944E0,9.888807175E0
1.847721063E0,2.529054165E0,2.394984722E0,9.288675308E0,9.920259864E0
1.850090542E0,2.569753885E0,2.351891041E0,1.007394028E1,1.065923539E1
1.852460021E0,2.830710649E0,2.229792118E0,9.779465675E0,1.042222839E1
1.854828719E0,3.072514772E0,2.138816357E0,8.891255379E0,9.647243370E0
1.857197417E0,3.249677896E0,2.031081676E0,8.726062775E0,9.530470647E0
1.859566949E0,3.390929937E0,1.992776155E0,8.615933418E0,9.471212769E0
1.861936428E0,3.496270180E0,2.002352476E0,8.311883926E0,9.236922378E0
1.864305074E0,3.637521982E0,1.880253553E0,8.055715561E0,9.036673768E0
1.866673824E0,3.747650385E0,1.798854113E0,8.034168243E0,9.045917250E0
1.869043355E0,3.886508226E0,1.731819391E0,7.739694118E0,8.832157700E0
1.871412834E0,3.891296387E0,1.662390471E0,8.067686081E0,9.110065222E0
1.873781480E0,3.917631388E0,1.619296789E0,8.309489250E0,9.328320823E0
1.876150230E0,3.872143745E0,1.595355749E0,8.510593414E0,9.485191480E0
1.878519709E0,3.733285904E0,1.669572830E0,8.520169258E0,9.450829660E0
1.880889188E0,3.493876219E0,1.827583432E0,8.867314339E0,9.704457523E0
1.883257886E0,3.252072334E0,2.002352476E0,9.494568825E0,1.023387644E1
1.885626584E0,3.168278694E0,2.196274519E0,9.982964516E0,1.070145748E1
1.887996115E0,3.182643175E0,2.356679201E0,1.030138016E1,1.103637565E1
1.890365594E0,3.237707376E0,2.459625483E0,1.050727177E1,1.126655522E1
1.892734292E0,3.383747578E0,2.485960484E0,1.052403069E1,1.133070912E1
1.895102990E0,3.541758060E0,2.533842564E0,1.021758556E1,1.110691060E1
1.897472521E0,3.709344864E0,2.536236525E0,1.004521084E1,1.100445345E1
1.899842001E0,3.845808744E0,2.548207045E0,9.848895073E0,1.087586034E1
1.902210646E0,3.963119507E0,2.555389404E0,9.710038185E0,1.079449734E1
1.904579396E0,4.109159470E0,2.552995205E0,9.616667747E0,1.076490941E1
1.906948876E0,4.228864670E0,2.543418884E0,9.552026749E0,1.075144135E1
1.909318355E0,4.303081512E0,2.548207045E0,9.458656311E0,1.069934806E1
1.911687053E0,4.413210392E0,2.584118605E0,9.384439468E0,1.068745990E1
1.914055803E0,4.537703037E0,2.617635965E0,9.336557388E0,1.070579613E1
1.916425282E0,4.664590836E0,2.605665445E0,9.293463707E0,1.071990521E1
1.918794761E0,4.700502396E0,2.646365166E0,9.240794182E0,1.070001161E1
1.921163459E0,4.695713520E0,2.651153326E0,9.190517426E0,1.065570035E1
1.923532157E0,4.695713520E0,2.677488565E0,9.066024780E0,1.055516347E1
1.925901688E0,4.609526157E0,2.720582247E0,8.967866898E0,1.044375104E1
1.928271167E0,4.535309315E0,2.756493807E0,8.879284859E0,1.034451489E1
1.930639813E0,4.511368275E0,2.761281729E0,8.802673340E0,1.026957538E1
1.933008563E0,4.540097713E0,2.799587488E0,8.790703773E0,1.028234653E1
1.935378094E0,4.578402996E0,2.854651690E0,8.817038536E0,1.033687471E1
1.937747574E0,5.064405441E0,2.840287209E0,9.221640587E0,1.089743497E1
1.940116219E0,4.997370243E0,2.778040409E0,9.123482704E0,1.076704019E1
1.942484969E0,4.942306042E0,2.684670687E0,8.908013344E0,1.053501530E1
1.944854449E0,4.978217602E0,2.574542284E0,8.742821693E0,1.038498193E1
1.947223928E0,5.004552841E0,2.483566523E0,8.572840691E0,1.023265602E1
1.949592916E0,5.057222843E0,2.416531801E0,8.390889168E0,1.009069620E1
1.951961614E0,5.105104923E0,2.368649721E0,8.266395569E0,1.000029467E1
1.954331145E0,5.152986526E0,2.337526560E0,8.158660889E0,9.928798923E0
1.956700624E0,5.188898087E0,2.294432402E0,8.067686081E0,9.862892177E0
1.959069322E0,5.267903805E0,2.308797359E0,8.007833481E0,9.859348498E0
1.961438020E0,5.306209087E0,2.263309240E0,7.993468761E0,9.857685653E0
1.963807551E0,5.366061687E0,2.256127119E0,7.900099277E0,9.813067625E0
1.966177030E0,5.382820129E0,2.217821598E0,7.861793995E0,9.782703614E0
1.968545676E0,5.516889572E0,2.177121639E0,7.890522480E0,9.870981420E0
1.970914426E0,5.686870575E0,2.136421919E0,7.892917156E0,9.960067108E0
1.973283905E0,5.794605255E0,2.112481117E0,7.806728840E0,9.949122660E0
1.975653384E0,5.923886776E0,2.098116398E0,7.670265675E0,9.916022513E0
1.978022082E0,6.002891541E0,2.112481117E0,7.615200996E0,9.924140745E0
1.980390832E0,6.069926739E0,2.100510597E0,7.548166752E0,9.911154156E0
1.982760311E0,6.165690899E0,2.076569557E0,7.531407833E0,9.952386113E0
1.985129791E0,6.211178303E0,2.078963757E0,7.538589954E0,9.986549189E0
1.987498489E0,6.285395622E0,2.066993237E0,7.540984154E0,1.003220321E1
1.989867186E0,6.383553505E0,2.076569557E0,7.567319393E0,1.011564231E1
1.992236718E0,6.450588226E0,2.069387436E0,7.581683636E0,1.016731919E1
1.994606197E0,6.575081348E0,2.043052197E0,7.617595196E0,1.026808227E1
1.996974843E0,6.685210228E0,2.019111156E0,7.679841995E0,1.038021285E1
1.999343593E0,6.788156033E0,2.021505356E0,7.730118275E0,1.048428704E1
2.001713072E0,6.910255432E0,2.031081676E0,7.792364597E0,1.061121430E1
2.004082551E0,7.029960155E0,2.066993237E0,7.866581440E0,1.075062344E1
2.006451249E0,7.152059078E0,2.088540077E0,7.940798283E0,1.088899564E1
2.008819999E0,7.214305878E0,2.141210318E0,8.065291405E0,1.103086200E1
2.011189478E0,7.228670120E0,2.184303999E0,8.223301888E0,1.116456670E1
2.013558957E0,7.226276398E0,2.225003719E0,8.402859688E0,1.130388265E1
2.015927655E0,7.137694836E0,2.270491600E0,8.553688049E0,1.136958218E1
2.018296353E0,7.037142754E0,2.308797359E0,8.699728012E0,1.142528734E1
2.020665884E0,6.919831753E0,2.373437643E0,8.766762733E0,1.141811747E1
2.023035364E0,6.824067593E0,2.457231283E0,8.783520699E0,1.139105438E1
2.025404009E0,6.728303909E0,2.478778362E0,8.785914421E0,1.134048975E1
2.027772759E0,6.625357628E0,2.560177565E0,8.747610092E0,1.126812119E1
2.030142239E0,6.563110828E0,2.632000446E0,8.692545891E0,1.120545421E1
2.032511718E0,6.500864029E0,2.713399887E0,8.670998573E0,1.117183908E1
2.034880416E0,6.438617706E0,2.809163809E0,8.599175453E0,1.110373891E1
2.037249166E0,6.364400864E0,2.890563250E0,8.536929131E0,1.103359022E1
2.039618645E0,6.287789822E0,2.974356651E0,8.493834496E0,1.097853919E1
2.041988124E0,6.256666183E0,3.031815052E0,8.371735573E0,1.088226680E1
2.044356822E0,6.259060383E0,3.096455812E0,8.333430290E0,1.087243928E1
2.046725520E0,6.278213024E0,3.137155294E0,8.321459770E0,1.088597239E1
2.049095051E0,6.314124584E0,3.168278694E0,8.347794533E0,1.093580508E1
2.051464530E0,6.350036144E0,3.187431574E0,8.307095528E0,1.093117172E1
2.053833228E0,6.383553505E0,3.173066854E0,8.232878685E0,1.089028925E1
2.056201926E0,6.395524025E0,3.151520014E0,8.153873444E0,1.083145688E1
2.058571457E0,6.409888744E0,3.132367373E0,8.065291405E0,1.076788394E1
2.060940936E0,6.405100346E0,3.137155294E0,7.986286640E0,1.070737260E1
2.063309582E0,6.402706146E0,3.094061613E0,7.895310879E0,1.062561985E1
2.065678332E0,6.400312424E0,3.082091093E0,7.816305637E0,1.056209820E1
2.068047811E0,6.448194027E0,3.072514772E0,7.792364597E0,1.057073788E1
2.070417291E0,6.476922989E0,3.084485292E0,7.792364597E0,1.059176694E1
2.072785989E0,6.512834549E0,3.067726612E0,7.787576199E0,1.060539030E1
2.075154739E0,6.591840267E0,3.091667414E0,7.768423557E0,1.064702635E1
2.077524218E0,6.670845032E0,3.089273453E0,7.761240959E0,1.069021259E1
2.079893697E0,6.769003391E0,3.091667414E0,7.694206715E0,1.070414085E1
2.082262395E0,6.862373352E0,3.053361893E0,7.574501514E0,1.066715801E1
2.084631093E0,6.929408073E0,3.034209251E0,7.459584713E0,1.062396000E1
2.087000624E0,6.982078075E0,3.058150053E0,7.272845268E0,1.053546270E1
2.089370103E0,7.022777557E0,3.094061613E0,7.093287468E0,1.045023201E1
2.091738749E0,7.058689117E0,3.129972935E0,6.923306465E0,1.037082422E1
2.094107499E0,7.089812756E0,3.165884495E0,6.796419621E0,1.031889477E1
2.096476978E0,7.104176998E0,3.201796055E0,6.726990700E0,1.029433012E1
2.098846457E0,7.140088558E0,3.242495775E0,6.693473339E0,1.031005474E1
2.101215155E0,7.132906437E0,3.252072096E0,6.688685417E0,1.030499101E1
2.103583905E0,7.123330116E0,3.247283936E0,6.715020180E0,1.031397988E1
2.105953384E0,7.087418556E0,3.225737095E0,6.681502819E0,1.026057316E1
2.108322864E0,7.077842236E0,3.218554735E0,6.616862297E0,1.020969206E1
2.110691561E0,7.022777557E0,3.201796055E0,6.528280735E0,1.010887491E1
2.113060259E0,7.003625393E0,3.201796055E0,6.425333977E0,1.002931619E1
2.115429791E0,6.977290154E0,3.197007656E0,6.341540813E0,9.955831242E0
2.117799270E0,6.974895477E0,3.232919216E0,6.293658733E0,9.935344676E0
2.120167916E0,6.958137035E0,3.268830776E0,6.284082413E0,9.929280811E0
2.122536666E0,7.008413315E0,3.295166016E0,6.331964016E0,1.000348662E1
2.124906145E0,7.077842236E0,3.283195496E0,6.413363457E0,1.009982446E1
2.127275624E0,7.156847000E0,3.295166016E0,6.513915539E0,1.022299730E1
2.129644322E0,7.252611160E0,3.273618937E0,6.578556538E0,1.032445426E1
2.132013072E0,7.386680603E0,3.247283936E0,6.657561779E0,1.046092884E1
2.134382551E0,7.513568401E0,3.232919216E0,6.765295982E0,1.061483427E1
2.136752030E0,7.582997322E0,3.223342896E0,6.822754860E0,1.069774610E1
2.139120728E0,7.693125725E0,3.199402094E0,6.801207542E0,1.075531409E1
2.141489426E0,7.793677807E0,3.180249214E0,6.726990700E0,1.077533307E1
2.143858957E0,7.863106728E0,3.194613695E0,6.664744377E0,1.079133086E1
2.146228436E0,7.961264610E0,3.187431574E0,6.578556538E0,1.080827740E1
2.148597082E0,7.994781971E0,3.168278694E0,6.537856579E0,1.080268935E1
2.150965832E0,8.045058250E0,3.189825535E0,6.478003979E0,1.081029531E1
2.153335311E0,8.116881371E0,3.194613695E0,6.468428135E0,1.085955259E1
2.155704791E0,8.133639336E0,3.194613695E0,6.379846096E0,1.081961560E1
2.158073489E0,8.164762497E0,3.223342896E0,6.372663975E0,1.084730991E1
2.160442239E0,8.212644577E0,3.225737095E0,6.382240772E0,1.088971570E1
2.162811718E0,8.207856178E0,3.235313416E0,6.377452374E0,1.088614049E1
2.165181197E0,8.253344536E0,3.271224976E0,6.377452374E0,1.093117138E1
2.167549895E0,8.277285576E0,3.292771816E0,6.382240772E0,1.095850355E1
2.169918593E0,8.298832893E0,3.297559977E0,6.410969734E0,1.099295511E1
2.172288124E0,8.306014061E0,3.302348137E0,6.379846096E0,1.098170337E1
2.174657603E0,8.317985535E0,3.357412577E0,6.360693455E0,1.099634138E1
2.177026301E0,8.303620338E0,3.405294418E0,6.312811852E0,1.097259014E1
2.179394999E0,8.282073021E0,3.460358858E0,6.260141373E0,1.094331700E1
2.181764530E0,8.291649818E0,3.527393579E0,6.257747173E0,1.097056798E1
2.184134009E0,8.325167656E0,3.611186981E0,6.286476612E0,1.103942372E1
2.186502655E0,8.339531898E0,3.675827503E0,6.317599773E0,1.108925457E1
2.188871405E0,8.373049736E0,3.726103783E0,6.343934536E0,1.114617947E1
2.191240884E0,8.401779175E0,3.785956144E0,6.339146614E0,1.118517488E1
2.193610364E0,8.377838135E0,3.817079544E0,6.288870811E0,1.114935712E1
2.195979061E0,8.356290817E0,3.824261665E0,6.226624012E0,1.110060449E1
2.198347759E0,8.334744453E0,3.829050064E0,6.161983013E0,1.104986987E1
2.200717291E0,8.308408737E0,3.766803265E0,6.130860329E0,1.099117423E1
2.203086770E0,8.267708778E0,3.721315622E0,6.140436649E0,1.095025847E1
2.205455468E0,8.224615097E0,3.680615664E0,6.159589291E0,1.091474990E1
2.207824166E0,8.188703537E0,3.627945423E0,6.147618771E0,1.086324400E1
2.210193697E0,8.212644577E0,3.568093300E0,6.123677731E0,1.084796062E1
2.212563176E0,8.255738258E0,3.496270180E0,6.054248810E0,1.081827380E1
2.214931822E0,8.308408737E0,3.419658899E0,6.003972530E0,1.080608203E1
2.217300572E0,8.337138176E0,3.378959179E0,5.934544086E0,1.077701497E1
2.219670051E0,8.444872856E0,3.328683138E0,5.896238327E0,1.082412285E1
2.222039530E0,8.550212860E0,3.283195496E0,5.915390968E0,1.090308960E1
2.224408228E0,8.641188622E0,3.211372614E0,5.999184608E0,1.099878497E1
2.226776926E0,8.744134903E0,3.158702135E0,6.003972530E0,1.106729328E1
2.229146457E0,8.803987503E0,3.096455812E0,5.948908806E0,1.106741842E1
2.231515936E0,8.882991791E0,3.060544252E0,5.884267807E0,1.108598583E1
2.233884634E0,8.940451622E0,3.027026653E0,5.843568325E0,1.110143488E1
2.236253332E0,8.940451622E0,3.017450571E0,5.838780403E0,1.109630748E1
2.238622864E0,8.945239067E0,3.005480051E0,5.812445164E0,1.108308310E1
2.240992343E0,8.945239067E0,3.000691652E0,5.783715725E0,1.106674387E1
2.243360989E0,9.041003227E0,2.955203772E0,5.778927803E0,1.112964399E1
2.245729739E0,9.024244308E0,2.904927731E0,5.766957283E0,1.109654842E1
2.248099218E0,8.957209587E0,2.883380890E0,5.757380486E0,1.103145136E1
2.250468697E0,8.909328461E0,2.857045650E0,5.649646282E0,1.092965446E1
2.252837395E0,8.842292786E0,2.842681170E0,5.649646282E0,1.087131460E1
2.255206093E0,8.806381226E0,2.821134329E0,5.647252083E0,1.083524828E1
2.257575624E0,8.689070702E0,2.823528528E0,5.630493641E0,1.073194864E1
2.259945103E0,8.578942299E0,2.849863529E0,5.589793682E0,1.062853548E1
2.262313801E0,8.475996017E0,2.873804569E0,5.544305801E0,1.052808568E1
2.264682499E0,8.358685493E0,2.909715891E0,5.510788918E0,1.042606658E1
2.267052030E0,8.274891853E0,2.952809811E0,5.438965797E0,1.033321198E1
2.269421509E0,8.191098213E0,2.969568491E0,5.419812679E0,1.026093546E1
2.271790155E0,8.109698296E0,3.012662172E0,5.407842159E0,1.020235741E1
2.274158905E0,8.033087730E0,3.041391611E0,5.431783199E0,1.016291445E1
2.276528384E0,7.966052532E0,3.103637934E0,5.467694759E0,1.014821400E1
2.278897864E0,7.918170929E0,3.110820293E0,5.604158401E0,1.018730706E1
2.281266561E0,7.997176170E0,3.106031895E0,5.719075203E0,1.031067806E1
2.283635259E0,7.774524689E0,3.153913975E0,5.683163643E0,1.013354610E1
2.286004791E0,7.733825207E0,3.194613695E0,5.623311043E0,1.008162864E1
2.288374270E0,7.736219406E0,3.220948696E0,5.539517879E0,1.004538996E1
2.290742968E0,7.731431007E0,3.268830776E0,5.479665279E0,1.002432101E1
2.293111666E0,7.930140972E0,3.228131056E0,5.546700001E0,1.020165902E1
2.295481197E0,7.906200409E0,3.211372614E0,5.580217361E0,1.019606516E1
2.297850676E0,7.884653091E0,3.271224976E0,5.400660038E0,1.010127695E1
2.300219322E0,7.719460487E0,3.362200737E0,5.237861156E0,9.916130975E0
2.302588072E0,8.186309814E0,3.273618937E0,5.336019039E0,1.030559792E1
2.304957551E0,8.152792931E0,3.383747578E0,5.245043755E0,1.026782666E1
2.307327030E0,7.963658810E0,3.556122780E0,5.106185913E0,1.010638439E1
2.309695728E0,8.164762497E0,3.572881222E0,5.302501678E0,1.037040746E1
2.312064426E0,8.301226616E0,3.553728580E0,5.443753719E0,1.054389893E1
2.314433957E0,8.363472939E0,3.647098541E0,5.350383759E0,1.057712691E1
2.316803436E0,8.306014061E0,3.718921185E0,5.209132195E0,1.048595740E1
2.319172134E0,8.435296059E0,3.790744305E0,5.146885872E0,1.058368538E1
2.321540832E0,8.452054977E0,3.860173225E0,5.108579636E0,1.060357282E1
2.323910364E0,8.545424461E0,3.924813747E0,4.991269112E0,1.064618286E1
2.326279843E0,8.401779175E0,4.027760029E0,4.778193951E0,1.047109744E1
2.328648489E0,8.657947540E0,3.999031067E0,4.589060783E0,1.058356197E1
2.331017239E0,8.523878098E0,4.068459988E0,4.426261902E0,1.043075543E1
2.333386718E0,8.526271820E0,4.080430031E0,4.328103542E0,1.039613874E1
2.335756197E0,8.564578056E0,4.078036308E0,4.263463020E0,1.039997569E1
2.338124895E0,8.617247581E0,4.090006828E0,4.244310379E0,1.044027214E1
2.340493593E0,8.696252823E0,4.113947868E0,4.196428299E0,1.049568438E1
2.342863124E0,8.801592827E0,4.145071030E0,4.217975140E0,1.060381839E1
2.345232603E0,8.961997986E0,4.214499950E0,4.174880981E0,1.074751362E1
2.347601301E0,9.086491585E0,4.267169952E0,4.210792542E0,1.088594702E1
2.349969999E0,9.230136871E0,4.319839954E0,4.203610897E0,1.102391893E1
2.352339530E0,9.388147354E0,4.370116234E0,4.174880981E0,1.116534182E1
2.354709009E0,9.388147354E0,4.394056797E0,4.294586182E0,1.122000518E1
2.357077655E0,9.455182076E0,4.372510433E0,4.222763062E0,1.124059800E1
2.359446405E0,9.538974762E0,4.341386795E0,4.182063580E0,1.128403007E1
2.361815884E0,9.550946236E0,4.300687313E0,4.184457779E0,1.127945798E1
2.364185364E0,9.567705154E0,4.248016834E0,4.155728817E0,1.126306845E1
2.366554061E0,9.596434593E0,4.202529430E0,4.086299896E0,1.124502812E1
2.368922759E0,9.716138840E0,4.190558910E0,4.043206215E0,1.132747344E1
2.371292291E0,9.802326202E0,4.159435272E0,4.000112057E0,1.137485812E1
2.373661770E0,9.792750359E0,4.135494709E0,3.878012896E0,1.131544343E1
2.376030416E0,9.876543045E0,4.128312111E0,3.782248974E0,1.135317007E1
2.378399166E0,9.878936768E0,4.118735790E0,3.727184772E0,1.133354677E1
2.380768645E0,9.924425125E0,4.140282631E0,3.595509291E0,1.133859962E1
2.383138124E0,9.998641968E0,4.192953110E0,3.459045649E0,1.138062800E1
2.385506822E0,1.001540089E1,4.271957874E0,3.466228008E0,1.142683752E1
2.387875572E0,9.977096558E0,4.403633595E0,3.459045649E0,1.144112937E1
2.390245051E0,9.929214478E0,4.532915115E0,3.437498808E0,1.144347052E1
2.392614530E0,9.859785080E0,4.681348801E0,3.461439610E0,1.145041277E1
2.394983228E0,9.890908241E0,4.786689281E0,3.363281727E0,1.149148050E1
2.397351926E0,1.001300716E1,4.889635563E0,3.284276485E0,1.161702718E1
2.399721457E0,1.012313652E1,4.963852406E0,3.207665205E0,1.172206636E1
2.402090936E0,1.025720501E1,5.038070202E0,3.200482845E0,1.186741321E1
2.404459582E0,1.033142185E1,5.066799164E0,3.114295483E0,1.192097176E1
2.406828332E0,1.018777657E1,5.167350769E0,3.131054163E0,1.184465303E1
2.409197811E0,9.993854523E0,5.275085449E0,3.164571524E0,1.173533841E1
2.411567291E0,9.843026161E0,5.354091167E0,3.193300724E0,1.165112122E1
2.413935989E0,9.778385162E0,5.428308010E0,3.090354443E0,1.160317348E1
2.416304739E0,9.661075592E0,5.524072170E0,2.975437641E0,1.151976493E1
2.418674218E0,9.385753632E0,5.648564816E0,2.834185839E0,1.131509015E1
2.421043697E0,9.261260033E0,5.785028458E0,2.530135155E0,1.120888378E1
2.423412395E0,9.246894836E0,5.849669456E0,2.285937309E0,1.117806809E1
2.425781093E0,9.222953796E0,5.923886299E0,2.250025749E0,1.119008139E1
2.428150624E0,9.266048431E0,5.974162579E0,2.297907591E0,1.126191153E1
2.430520103E0,9.388147354E0,5.974162579E0,2.420006752E0,1.138790419E1
2.432888749E0,9.644316673E0,5.897551060E0,2.475070953E0,1.157237784E1
2.435257499E0,9.888514519E0,5.770664215E0,2.386489391E0,1.169523905E1
2.437626978E0,9.969913483E0,5.631806374E0,2.415218592E0,1.170255095E1
2.439996457E0,9.866967201E0,5.605471134E0,2.396065712E0,1.159825329E1
2.442365155E0,9.735292435E0,5.581530094E0,2.688145876E0,1.153930350E1
2.444733853E0,9.608404160E0,5.500131130E0,2.917979240E0,1.144934390E1
2.447103384E0,9.625163078E0,5.416337490E0,2.901220798E0,1.141917502E1
2.449472864E0,9.486305237E0,5.325361729E0,2.894038439E0,1.125721649E1
2.451841561E0,9.349842072E0,5.251144409E0,2.922767401E0,1.111470349E1
2.454210259E0,9.282807350E0,5.241568089E0,2.898826361E0,1.104752201E1
2.456579739E0,9.208590508E0,5.169744968E0,2.836580038E0,1.093483372E1
2.458949218E0,9.091279030E0,5.133833408E0,2.860520840E0,1.082544130E1
2.461317916E0,9.093672752E0,5.093133926E0,2.767151117E0,1.078387790E1
2.463686666E0,8.983545303E0,5.066799164E0,2.750392437E0,1.067432427E1
2.466056145E0,8.775258064E0,5.090740204E0,2.601958275E0,1.047334602E1
2.468425624E0,8.492754936E0,5.129045486E0,2.458312511E0,1.022141352E1
2.470794322E0,8.238980293E0,5.169744968E0,2.338607550E0,1.000380650E1
2.473163020E0,8.025904655E0,5.198474407E0,2.015404224E0,9.772468260E0
2.475532551E0,7.477656841E0,5.270297527E0,2.005827665E0,9.365614368E0
2.477902030E0,7.312463760E0,5.291843891E0,1.780782461E0,9.200376307E0
2.480270676E0,7.180788040E0,5.313391209E0,1.634742498E0,9.081201795E0
2.482639426E0,7.063477516E0,5.337331772E0,1.682624340E0,9.011717358E0
2.485008905E0,7.259793758E0,5.308602810E0,1.541372538E0,9.124784847E0
2.487378384E0,7.176000118E0,5.306209087E0,1.570101738E0,9.061790775E0
2.489747082E0,7.041930676E0,5.310997009E0,1.785570621E0,8.999096583E0
2.492115832E0,7.204729080E0,5.289450169E0,1.862181902E0,9.129848062E0
2.494485311E0,7.448927879E0,5.236780167E0,1.991463184E0,9.320746680E0
2.496854791E0,7.681155205E0,5.196080685E0,2.329030991E0,9.561578589E0
2.499223489E0,8.040269852E0,5.136228085E0,2.642657995E0,9.900021187E0
2.501592186E0,8.478389740E0,5.083557606E0,2.827003479E0,1.028190640E1
2.503961718E0,8.744134903E0,5.021310806E0,3.042472363E0,1.053233571E1
2.506331197E0,8.854263306E0,4.994976044E0,3.219635725E0,1.066366816E1
2.508699843E0,9.208590508E0,4.932729721E0,3.241182804E0,1.093778897E1
2.511068593E0,9.524611473E0,4.918365002E0,3.243576765E0,1.119952357E1
2.513438072E0,9.749656677E0,4.903999805E0,3.324976206E0,1.140878987E1
2.515807551E0,9.957942963E0,4.872877121E0,3.334552526E0,1.157690805E1
2.518176249E0,1.003934193E1,4.889635563E0,3.360887766E0,1.166158175E1
2.520544999E0,1.007764816E1,4.882453442E0,3.389616728E0,1.169986520E1
2.522914478E0,1.036733437E1,4.856118679E0,3.291458607E0,1.191206154E1
2.525283957E0,1.070011330E1,4.784295559E0,3.075989962E0,1.211790505E1
2.527652655E0,1.073602486E1,4.741201401E0,3.138236523E0,1.214865214E1
2.530021353E0,1.097304153E1,4.705289841E0,2.953890800E0,1.229930339E1
2.532390884E0,1.115020466E1,4.638255596E0,2.946708441E0,1.243075096E1
2.534760364E0,1.124357414E1,4.592767715E0,3.054442883E0,1.252362153E1
2.537129009E0,1.154283619E1,4.535308838E0,2.846156359E0,1.272425635E1
2.539497759E0,1.155959511E1,4.542491436E0,2.762362957E0,1.272356540E1
2.541867239E0,1.127230358E1,4.592767715E0,2.501406193E0,1.242639836E1
2.544236718E0,1.073123741E1,4.664590359E0,2.259602308E0,1.191736809E1
2.546605416E0,1.087009430E1,4.568826675E0,1.153528571E0,1.184752107E1
2.548974114E0,1.067856598E1,4.564037800E0,7.872315049E-1,1.163967121E1
2.551343645E0,1.027635860E1,4.645437717E0,5.143042803E-1,1.128929345E1
2.553713124E0,1.019017029E1,4.726837158E0,4.745496809E-2,1.123320132E1
2.556081822E0,9.483911514E0,4.748383999E0,1.527952999E-1,1.060731232E1
2.558450520E0,8.404172897E0,4.760354519E0,7.417436242E-1,9.687170941E0
2.560820051E0,8.452054977E0,4.664590359E0,1.383362055E0,9.752401096E0
2.563189530E0,8.562183380E0,4.559249878E0,1.467155457E0,9.810723155E0
2.565558176E0,9.184649467E0,4.386875153E0,1.187045932E0,1.024751372E1
2.567926926E0,9.941184044E0,4.209711552E0,8.782072663E-1,1.083143848E1
2.570296405E0,1.025720501E1,4.078036308E0,6.699206233E-1,1.105845506E1
2.572665884E0,1.066899014E1,3.965513468E0,4.161462188E-1,1.138972455E1
2.575034582E0,1.066899014E1,3.946360826E0,2.078595906E-1,1.137735997E1
2.577403280E0,1.071926594E1,3.999031067E0,1.288543493E-1,1.144165701E1
2.579772811E0,1.061153221E1,4.044518948E0,3.309036791E-2,1.135622492E1
2.582142291E0,1.038169861E1,4.121129990E0,-4.352079332E-2,1.116983762E1
2.584510936E0,1.045352077E1,4.164223671E0,-1.632257253E-1,1.125359934E1
2.586879686E0,1.068335533E1,4.180982590E0,-2.015313059E-1,1.147411484E1
2.589249166E0,1.100177002E1,4.274352551E0,-1.775903106E-1,1.180426074E1
2.591618645E0,1.093952274E1,4.446727276E0,-1.416788399E-1,1.180959839E1
2.593987343E0,1.055167961E1,4.602344036E0,-2.637778819E-1,1.151473369E1
2.596356093E0,1.044633961E1,4.561644077E0,-3.547536135E-1,1.140440520E1
2.598725572E0,1.063547325E1,4.528126717E0,-5.007936358E-1,1.157013471E1
2.601095051E0,1.090121841E1,4.458697796E0,-6.109222174E-1,1.179363281E1
2.603463749E0,1.128906250E1,4.415604115E0,-7.785091400E-1,1.214687484E1
2.605832447E0,1.129624462E1,4.391663074E0,-8.192087412E-1,1.214754914E1
2.608201978E0,1.110950375E1,4.394056797E0,-9.317314029E-1,1.198319373E1
2.610571457E0,1.076475430E1,4.343780994E0,-9.652488232E-1,1.164817898E1
2.612940103E0,1.074081326E1,4.259987354E0,-1.025101304E0,1.160014631E1
2.615308853E0,1.087488365E1,4.216894150E0,-1.278875828E0,1.173374681E1
2.617678332E0,1.084136486E1,4.248016834E0,-1.355486870E0,1.172255022E1
2.620047811E0,1.078390694E1,4.264776230E0,-1.235782027E0,1.166225203E1
2.622416509E0,1.079587746E1,4.248016834E0,-1.118471146E0,1.165536764E1
2.624785207E0,1.064744282E1,4.243228912E0,-9.748252034E-1,1.150318714E1
2.627154739E0,1.076475430E1,4.267169952E0,-9.580664635E-1,1.161923258E1
2.629524218E0,1.066659641E1,4.370116234E0,-1.025101304E0,1.157259814E1
2.631892916E0,1.033381653E1,4.494609356E0,-8.455438614E-1,1.130062926E1
2.634261614E0,1.003694820E1,4.571220398E0,-6.995038390E-1,1.105104931E1
2.636631145E0,9.749656677E0,4.583190918E0,-6.851392388E-1,1.079494604E1
2.639000624E0,9.754444122E0,4.540097237E0,-7.114743590E-1,1.078275748E1
2.641369270E0,9.864573479E0,4.595161438E0,-6.827451587E-1,1.090373603E1
2.643738020E0,9.361812592E0,4.693319321E0,-6.013457775E-1,1.048963288E1
2.646107499E0,9.210984230E0,4.762748718E0,-4.170001745E-1,1.037785599E1
2.648476978E0,8.739346504E0,4.870482922E0,-3.978474140E-1,1.001279500E1
2.650845676E0,7.697913647E0,4.935123444E0,-5.247346163E-1,9.159075517E0
2.653214374E0,7.492021084E0,4.853724003E0,-6.013457775E-1,8.947101953E0
2.655583905E0,6.982078075E0,4.803448200E0,-5.151582360E-1,8.490460345E0
2.657953384E0,6.970107555E0,4.635860920E0,-3.786945939E-1,8.379559380E0
2.660322082E0,6.821673870E0,4.487427235E0,-6.746177375E-2,8.165585629E0
2.662690780E0,7.022777557E0,4.243228912E0,3.610819578E-1,8.213085681E0
2.665060311E0,7.120935917E0,4.128312111E0,5.047278404E-1,8.246541057E0
2.667429791E0,6.869555473E0,4.056489468E0,4.807868600E-1,7.992312257E0
2.669798436E0,7.345981121E0,3.951148987E0,5.861272216E-1,8.361732002E0
2.672167186E0,8.507119179E0,3.812291145E0,8.710250258E-1,9.362869490E0
2.674536666E0,8.645977020E0,3.759620905E0,1.131981730E0,9.495738551E0
2.676906145E0,8.246162415E0,3.721315622E0,1.261262894E0,9.134449552E0
2.679274843E0,8.770470619E0,3.572881222E0,1.471943736E0,9.584010302E0
2.681643541E0,8.820746422E0,3.453176498E0,1.261262894E0,9.556190635E0
2.684013072E0,8.399384499E0,3.484299660E0,7.585023046E-1,9.124983826E0
2.686382551E0,8.253344536E0,3.498664141E0,5.047278404E-1,8.978479659E0
2.688751197E0,8.253344536E0,3.577669621E0,7.130144238E-1,9.023624854E0
2.691119947E0,8.241374016E0,3.683010101E0,1.067340970E0,9.089775895E0
2.693489426E0,8.310803413E0,3.809896946E0,1.311539054E0,9.236065331E0
2.695858905E0,8.377838135E0,3.886508226E0,1.546160698E0,9.363959147E0
2.698227603E0,8.425719261E0,3.893690586E0,1.668259859E0,9.430623649E0
2.700596353E0,8.349108696E0,3.963119507E0,1.708959460E0,9.398642172E0
2.702965832E0,8.071393013E0,4.030154228E0,1.749659061E0,9.189713549E0
2.705335311E0,7.999570370E0,4.070854187E0,1.687412620E0,9.133035709E0
2.707704009E0,7.951688290E0,4.152253151E0,1.670653820E0,9.124781481E0
2.710072707E0,7.951688290E0,4.190558910E0,1.723324060E0,9.152047665E0
2.712442239E0,7.891835690E0,4.212105751E0,1.747265100E0,9.114594930E0
2.714811718E0,7.779313087E0,4.269564152E0,1.804723501E0,9.055601420E0
2.717180364E0,7.793677807E0,4.288716793E0,1.783176541E0,9.072718670E0
2.719549114E0,7.738613129E0,4.236046314E0,1.713747740E0,8.987054737E0
2.721918593E0,7.736219406E0,4.166617870E0,1.728112221E0,8.955231266E0
2.724288072E0,7.822406769E0,4.068459988E0,1.692200780E0,8.978082078E0
2.726656770E0,7.975629330E0,3.903266907E0,1.670653820E0,9.035332862E0
2.729025468E0,8.131245613E0,3.699768543E0,1.835846663E0,9.120075409E0
2.731394999E0,8.349108696E0,3.467540979E0,1.931610584E0,9.244597120E0
2.733764478E0,8.528666496E0,3.278407335E0,2.103985786E0,9.376185954E0
2.736133176E0,8.760892868E0,3.113214493E0,2.223690748E0,9.559819500E0
2.738501874E0,8.935663223E0,2.976750851E0,2.314666510E0,9.698701146E0
2.740871353E0,9.057762146E0,2.873804569E0,2.326637030E0,9.783406751E0
2.743240832E0,9.376176834E0,2.818740368E0,2.204537868E0,1.003583462E1
2.745609530E0,9.524611473E0,2.859440088E0,2.288331509E0,1.020446385E1
2.747978280E0,9.345053673E0,2.880986691E0,2.458312511E0,1.008332350E1
2.750347759E0,9.026638031E0,2.859440088E0,2.386489391E0,9.764830945E0
2.752717239E0,8.985939026E0,2.768464327E0,2.108773947E0,9.636307512E0
2.755085936E0,9.251684189E0,2.665518045E0,1.682624340E0,9.773938380E0
2.757454634E0,9.450394630E0,2.605665445E0,1.256474853E0,9.883227213E0
2.759824166E0,9.632345200E0,2.557783604E0,9.643947482E-1,1.001271133E1
2.762193645E0,9.780778885E0,2.521872044E0,7.608963847E-1,1.012928613E1
2.764562291E0,9.917243004E0,2.478778362E0,6.052799821E-1,1.024023510E1
2.766931041E0,1.010398293E1,2.385408163E0,4.879691601E-1,1.039320725E1
2.769300520E0,1.093473530E1,2.122057438E0,3.562936783E-1,1.114443848E1
2.771669999E0,1.643637276E1,2.157968998E0,-2.158958912E-1,1.657883562E1
2.774038697E0,2.321406555E1,3.390929699E0,-1.105555519E-1,2.346067915E1
2.776407395E0,1.578996754E1,4.353357315E0,-3.394439816E-2,1.637913145E1
2.778776926E0,9.263653755E0,4.599949360E0,-5.343110561E-1,1.035665503E1
2.781146405E0,6.333277702E0,4.547279358E0,-9.173668027E-1,7.850459723E0
2.783515103E0,6.757032871E0,4.207317352E0,-2.009075880E0,8.209470045E0
2.785883801E0,9.349842072E0,3.819473505E0,-3.735221148E0,1.076846329E1
2.788253332E0,1.187561607E1,3.378959179E0,-4.716801167E0,1.321725522E1
2.790622811E0,1.342938614E1,3.192219734E0,-4.206858158E0,1.443039620E1
2.792991457E0,1.323785782E1,3.237707615E0,-2.535777569E0,1.386195506E1
2.795360207E0,1.169605827E1,3.256860256E0,-8.000559807E-1,1.216737471E1
2.797729686E0,9.649104118E0,3.228131056E0,5.765508413E-1,1.019109667E1
2.800099166E0,8.224615097E0,2.952809811E0,1.337874174E0,8.840434751E0
2.802467864E0,7.360345840E0,2.641577005E0,1.287598133E0,7.925309389E0
2.804836561E0,7.077842236E0,2.402167082E0,7.345613241E-1,7.510381997E0
2.807206093E0,7.269370079E0,2.236974239E0,-1.799844205E-1,7.607903094E0
2.809575572E0,7.877470970E0,2.177121639E0,-8.575143814E-1,8.217647987E0
2.811944218E0,8.356290817E0,2.203456640E0,-1.204658747E0,8.725481080E0
2.814312968E0,8.653159142E0,2.299220800E0,-1.209446907E0,9.034729727E0
2.816682447E0,8.693859100E0,2.517083645E0,-9.772192836E-1,9.103507767E0
2.819051926E0,8.636400223E0,2.727764606E0,-7.330211997E-1,9.086552076E0
2.821420624E0,8.588519096E0,2.936050892E0,-6.181044579E-1,9.097533085E0
2.823789374E0,8.566971779E0,3.036603212E0,-5.702224970E-1,9.107091645E0
2.826158853E0,8.519089699E0,3.084485292E0,-6.755628586E-1,9.085445723E0
2.828528332E0,8.523878098E0,3.091667414E0,-7.832973003E-1,9.101014223E0
2.830897030E0,8.617247581E0,3.041391611E0,-9.676428437E-1,9.189306366E0
2.833265728E0,8.703434944E0,2.974356651E0,-1.094530106E0,9.262536017E0
2.835635259E0,8.813564301E0,2.959991932E0,-9.820075035E-1,9.349053784E0
2.838004739E0,8.849474907E0,2.952809811E0,-7.449916601E-1,9.358808924E0
2.840373384E0,8.918904305E0,2.943233252E0,-5.414932966E-1,9.407586883E0
2.842742134E0,8.899751663E0,2.928868771E0,-3.667241335E-1,9.376477939E0
2.845111614E0,8.887781143E0,2.959991932E0,-2.589896917E-1,9.371300953E0
2.847481093E0,8.847081184E0,3.012662172E0,-1.991371959E-1,9.348081860E0
2.849849791E0,8.835110664E0,3.053361893E0,-1.560434252E-1,9.349146958E0
2.852218489E0,8.878204346E0,3.091667414E0,-1.153437495E-1,9.401820248E0
2.854588020E0,8.894963264E0,3.153913975E0,-2.063194960E-1,9.439815283E0
2.856957499E0,8.904539108E0,3.192219734E0,-2.254722863E-1,9.462130908E0
2.859326145E0,8.866233826E0,3.235313416E0,-2.206840962E-1,9.440659755E0
2.861694895E0,8.765682220E0,3.252072096E0,-3.188421428E-1,9.354935490E0
2.864064374E0,8.662735939E0,3.278407335E0,-3.619359136E-1,9.269409162E0
2.866433853E0,8.523878098E0,3.295166016E0,-4.098178744E-1,9.147817640E0
2.868802551E0,8.471207619E0,3.343047857E0,-3.882710040E-1,9.115266418E0
2.871171301E0,8.497542381E0,3.405294418E0,-3.595418334E-1,9.161524269E0
2.873540780E0,8.499937057E0,3.448388338E0,-2.877188623E-1,9.177314109E0
2.875910259E0,8.533453941E0,3.548940182E0,-2.518073916E-1,9.245443177E0
2.878278957E0,8.547819138E0,3.649492502E0,-2.565955818E-1,9.297841084E0
2.880647655E0,8.574153900E0,3.668645144E0,-2.494132817E-1,9.329377218E0
2.883017186E0,8.569365501E0,3.659069061E0,-2.206840962E-1,9.320488880E0
2.885386666E0,8.545424461E0,3.599216461E0,-2.446250767E-1,9.275692955E0
2.887755311E0,8.492754936E0,3.592034340E0,-2.733542621E-1,9.225200250E0
2.890124061E0,8.466419220E0,3.505846500E0,-2.039254010E-1,9.165849642E0
2.892493541E0,8.420931816E0,3.445993900E0,-3.379949331E-1,9.105010005E0
2.894863020E0,8.291649818E0,3.326289177E0,-4.146060944E-1,8.943576165E0
2.897231718E0,8.294043541E0,3.218554735E0,-4.122119844E-1,8.906187263E0
2.899600416E0,8.286862373E0,3.098849773E0,-4.170001745E-1,8.857135375E0
2.901969947E0,8.246162415E0,2.962386370E0,-4.146060944E-1,8.771933982E0
2.904339426E0,8.282073021E0,2.775646448E0,-4.768526554E-1,8.747818882E0
2.906708072E0,8.282073021E0,2.581724405E0,-5.893752575E-1,8.695136435E0
2.909076822E0,8.289256096E0,2.390196562E0,-5.845870972E-1,8.646765193E0
2.911446301E0,8.195885658E0,2.229792118E0,-6.492277384E-1,8.518568616E0
2.913815780E0,7.899018288E0,2.095722437E0,-7.952678204E-1,8.210906975E0
2.916184478E0,7.671578884E0,1.937711835E0,-7.473857999E-1,7.947731454E0
2.918553228E0,7.645243645E0,1.765336752E0,-5.702224970E-1,7.867103529E0
2.920922707E0,7.647637844E0,1.607326269E0,-4.529116750E-1,7.827834395E0
2.923292186E0,7.549479485E0,1.470862627E0,-3.882710040E-1,7.701222742E0
2.925660884E0,7.415410042E0,1.310457945E0,-3.595418334E-1,7.538890929E0
2.928029582E0,7.266976357E0,1.183570743E0,-2.829306722E-1,7.368163600E0
2.930399114E0,7.353163719E0,1.044713020E0,8.336646855E-2,7.427475476E0
2.932768593E0,7.384286880E0,8.364264965E-1,3.778406382E-1,7.441106475E0
2.935137239E0,7.044324875E0,7.023569345E-1,7.513200045E-1,7.119009759E0
2.937505989E0,6.994048595E0,5.946224928E-1,1.495884657E0,7.176904804E0
2.939875468E0,7.266976357E0,6.089871526E-1,2.216508389E0,7.621858051E0
2.942244947E0,7.484838486E0,7.646034956E-1,2.786303997E0,8.023148735E0
2.944613645E0,7.671578884E0,9.537373185E-1,3.212453365E0,8.371534750E0
2.946982343E0,7.884653091E0,1.190753102E0,3.413557768E0,8.673985471E0
2.949351874E0,8.092940331E0,1.427768826E0,3.454257488E0,8.914376131E0
2.951721353E0,8.248556137E0,1.743789911E0,3.380040407E0,9.083179771E0
2.954089999E0,8.363472939E0,2.136421919E0,3.162177563E0,9.193005229E0
2.956458749E0,8.473601341E0,2.567359686E0,2.901220798E0,9.317206532E0
2.958828228E0,8.578942299E0,2.971962452E0,2.589987755E0,9.441337212E0
2.961197707E0,8.607670784E0,3.383747578E0,2.233267307E0,9.514684801E0
2.963566405E0,8.684282303E0,3.750044823E0,1.833452463E0,9.635410901E0
2.965935155E0,8.784833908E0,4.066065788E0,1.440820456E0,9.786836127E0
2.968304634E0,8.873415947E0,4.338993073E0,1.048188210E0,9.932928570E0
2.970674114E0,8.990727425E0,4.595161438E0,7.273790240E-1,1.012313037E1
2.973042811E0,9.060155869E0,4.801054001E0,5.047278404E-1,1.026602621E1
2.975411509E0,9.086491585E0,4.937517643E0,3.203822374E-1,1.034630633E1
2.977780989E0,9.069732666E0,4.990188122E0,1.432189196E-1,1.035290007E1
2.980150468E0,9.081703186E0,4.985399723E0,2.111987770E-2,1.036011531E1
2.982519166E0,9.127190590E0,4.942306042E0,-8.422046900E-2,1.037974422E1
2.984887916E0,9.081703186E0,4.851329803E0,-2.182900012E-1,1.029856224E1
2.987257395E0,9.036214828E0,4.731625080E0,-2.589896917E-1,1.020335876E1
2.989626874E0,9.019455910E0,4.628678799E0,-2.829306722E-1,1.014176031E1
2.991995572E0,9.021850586E0,4.482638836E0,-2.613837719E-1,1.007750765E1
2.994364270E0,9.033821106E0,4.298293591E0,-2.925070524E-1,1.000853695E1
2.996733801E0,9.131978989E0,4.094794750E0,-3.379949331E-1,1.001372183E1
2.999103280E0,9.210984230E0,3.900872707E0,-4.170001745E-1,1.001163960E1
3.001471926E0,9.254077911E0,3.726103783E0,-4.864290953E-1,9.987913729E0
3.003840676E0,9.280413628E0,3.580063820E0,-4.936113358E-1,9.959246267E0
3.006210155E0,9.316324234E0,3.441205978E0,-4.960054159E-1,9.943933688E0
3.008579634E0,9.316324234E0,3.335865498E0,-5.965576172E-1,9.913514858E0
3.010948332E0,9.376176834E0,3.237707615E0,-6.013457775E-1,9.937658646E0
3.013317030E0,9.395330429E0,3.132367373E0,-7.162625194E-1,9.929601766E0
3.015686561E0,9.426453590E0,3.096455812E0,-8.120265007E-1,9.955172170E0
3.018056041E0,9.438423157E0,3.072514772E0,-9.245491028E-1,9.968900128E0
3.020424686E0,9.426453590E0,3.050967693E0,-1.058618665E0,9.964291477E0
3.022793436E0,9.426453590E0,3.065332413E0,-1.020313025E0,9.964704148E0
3.025162916E0,9.345053673E0,3.089273453E0,-1.108894825E0,9.904710311E0
3.027532395E0,9.354630470E0,3.118002415E0,-1.108894825E0,9.922736418E0
3.029901093E0,9.361812592E0,3.187431574E0,-1.132835746E0,9.954223820E0
3.032269843E0,9.383358955E0,3.271224976E0,-1.137623906E0,1.000212609E1
3.034639322E0,9.445606232E0,3.355018139E0,-1.118471146E0,1.008596061E1
3.037008801E0,9.479123116E0,3.426841259E0,-1.135229826E0,1.014326194E1
3.039377499E0,9.495882034E0,3.505846500E0,-1.132835746E0,1.018558060E1
3.041746197E0,9.519823074E0,3.570487261E0,-1.080165625E0,1.022458647E1
3.044115728E0,9.500670433E0,3.620763302E0,-1.029889464E0,1.021926308E1
3.046485207E0,9.469547272E0,3.671039581E0,-1.041859984E0,1.020952151E1
3.048853853E0,9.507852554E0,3.697374582E0,-9.652488232E-1,1.024702612E1
3.051222603E0,9.527005196E0,3.726103783E0,-9.604606032E-1,1.027473416E1
3.053592082E0,9.567705154E0,3.740468264E0,-9.030022621E-1,1.031249232E1
3.055961561E0,9.500670433E0,3.747650385E0,-8.407557011E-1,1.024765789E1
3.058330259E0,9.529398918E0,3.769197464E0,-7.952678204E-1,1.027855749E1
3.060698957E0,9.503064156E0,3.740468264E0,-7.641444802E-1,1.024125227E1
3.063068489E0,9.471940994E0,3.694980621E0,-7.402034998E-1,1.019403989E1
3.065437968E0,9.445606232E0,3.639915943E0,-7.497799397E-1,1.015040074E1
3.067806614E0,9.373783112E0,3.642310143E0,-6.899274588E-1,1.008019012E1
3.070175364E0,9.318717957E0,3.620763302E0,-7.378094196E-1,1.002460942E1
3.072544843E0,9.275625229E0,3.587245941E0,-7.761150002E-1,9.975365223E0
3.074914322E0,9.194225311E0,3.580063820E0,-8.096323609E-1,9.899805078E0
3.077283020E0,9.100854874E0,3.544152260E0,-7.282329798E-1,9.793717269E0
3.079651770E0,8.892569542E0,3.436417818E0,-8.072382212E-1,9.567569912E0
3.082021249E0,8.863840103E0,3.235313416E0,-9.460960031E-1,9.483143567E0
3.084390728E0,8.959604263E0,3.132367373E0,-1.075377345E0,9.552102928E0
3.086759426E0,9.012273788E0,3.180249214E0,-8.599084020E-1,9.595546173E0
3.089128124E0,8.921298027E0,3.347836018E0,-6.228926778E-1,9.549113036E0
3.091497655E0,8.727375984E0,3.481905460E0,-5.175523758E-1,9.410558839E0
3.093867134E0,8.607670784E0,3.551334620E0,-5.486756563E-1,9.327648089E0
3.096235780E0,8.586124420E0,3.539364100E0,-6.875333786E-1,9.312428949E0
3.098604530E0,8.586124420E0,3.445993900E0,-8.120265007E-1,9.287399720E0
3.100974009E0,8.543030739E0,3.347836018E0,-8.958199024E-1,9.219212195E0
3.103343489E0,8.454448700E0,3.319107056E0,-9.413077831E-1,9.131277830E0
3.105712186E0,8.408961296E0,3.328683138E0,-8.216028810E-1,9.081067823E0
3.108080884E0,8.363472939E0,3.331077337E0,-6.707746387E-1,9.027385803E0
3.110450416E0,8.394597054E0,3.333471537E0,-5.678284168E-1,9.050067474E0
3.112819895E0,8.430508614E0,3.374171257E0,-5.319169164E-1,9.096232339E0
3.115188541E0,8.430508614E0,3.366988659E0,-5.031877756E-1,9.091935220E0
3.117557291E0,8.399384499E0,3.366988659E0,-4.768526554E-1,9.061658846E0
3.119926770E0,8.382626534E0,3.355018139E0,-4.217883945E-1,9.038942403E0
3.122296249E0,8.255738258E0,3.405294418E0,-4.409411848E-1,8.941346285E0
3.124664947E0,8.143216133E0,3.400506258E0,-4.505175948E-1,8.836197027E0
3.127033645E0,8.033087730E0,3.407688618E0,-5.319169164E-1,8.742183698E0
3.129403176E0,7.879865170E0,3.390929699E0,-5.558578968E-1,8.596490988E0
3.131772655E0,7.736219406E0,3.424447298E0,-6.133162975E-1,8.482457597E0
3.134141353E0,7.594967842E0,3.445993900E0,-6.755628586E-1,8.367484428E0
3.136510051E0,7.580602646E0,3.450782299E0,-6.588041782E-1,8.355085750E0
3.138879530E0,7.487233162E0,3.491482019E0,-6.588041782E-1,8.287528586E0
3.141249009E0,7.393863201E0,3.462752819E0,-6.659864783E-1,8.191666992E0
3.143617707E0,7.515962124E0,3.750044823E0,-5.223405361E-1,8.415780561E0
3.145986457E0,7.472868919E0,3.943966866E0,-4.361529946E-1,8.461020858E0
3.148355936E0,7.271764278E0,3.524999142E0,-8.551202416E-1,8.126217158E0
3.150725416E0,7.298099041E0,3.235313416E0,-1.070589185E0,8.054543048E0
3.153094114E0,7.322040081E0,3.086879253E0,-1.154382586E0,8.029551272E0
3.155462811E0,7.381892681E0,3.012662172E0,-1.005948544E0,8.036193464E0
3.157832343E0,7.410621643E0,2.993509531E0,-7.402034998E-1,8.026600381E0
3.160201822E0,7.482444763E0,3.007874012E0,-4.744585752E-1,8.078328828E0
3.162570468E0,7.609332085E0,3.053361893E0,-1.847726107E-1,8.201164219E0
3.164939218E0,7.700307846E0,3.094061613E0,-1.479159296E-2,8.298685256E0
3.167308697E0,7.872682571E0,3.132367373E0,1.025192589E-1,8.473568695E0
3.169678176E0,8.011540413E0,3.098849773E0,1.025192589E-1,8.590585539E0
3.172046874E0,8.176733017E0,3.031815052E0,1.120956093E-1,8.721435132E0
3.174415572E0,8.317985535E0,3.019844532E0,-5.070307851E-2,8.849345465E0
3.176785103E0,8.555001259E0,3.120396852E0,-1.105555519E-1,9.106983342E0
3.179154582E0,8.693859100E0,3.218554735E0,-1.392847300E-1,9.271552237E0
3.181523280E0,8.775258064E0,3.295166016E0,-1.991371959E-1,9.375656179E0
3.183891978E0,8.835110664E0,3.355018139E0,-2.853247523E-1,9.454984790E0
3.186261457E0,8.866233826E0,3.410082817E0,-5.989516973E-1,9.518272438E0
3.188630936E0,8.993121147E0,3.505846500E0,-7.138684392E-1,9.678677379E0
3.190999634E0,9.057762146E0,3.551334620E0,-7.880855203E-1,9.760948287E0
3.193368332E0,9.112826347E0,3.534575701E0,-9.341254830E-1,9.818829861E0
3.195737864E0,9.131978989E0,3.510634661E0,-1.065800905E0,9.841418980E0
3.198107343E0,9.170284271E0,3.481905460E0,-1.065800905E0,9.866798408E0
3.200476041E0,9.141554832E0,3.467540979E0,-1.065800905E0,9.835029068E0
3.202844739E0,9.093672752E0,3.410082817E0,-1.125653505E0,9.777046832E0
3.205214218E0,9.076913834E0,3.369383097E0,-1.130441666E0,9.747871847E0
3.207583697E0,8.983545303E0,3.304742336E0,-1.211840987E0,9.648521478E0
3.209952395E0,8.950027466E0,3.287983418E0,-1.197476387E0,9.609775038E0
3.212321145E0,8.748923302E0,3.240101576E0,-1.202264667E0,9.406771895E0
3.214690624E0,8.490360260E0,3.199402094E0,-1.180717707E0,9.149671328E0
3.217060103E0,8.368261337E0,3.180249214E0,-1.259723067E0,9.040391865E0
3.219428801E0,8.303620338E0,3.199402094E0,-1.355486870E0,9.001312634E0
3.221797499E0,8.277285576E0,3.168278694E0,-1.448856831E0,8.980569720E0
3.224167030E0,8.258132935E0,3.156308174E0,-1.549408913E0,8.975506049E0
3.226536509E0,8.279679298E0,3.132367373E0,-1.532650352E0,8.984087697E0
3.228905155E0,8.274891853E0,3.173066854E0,-1.558985353E0,8.998478970E0
3.231273905E0,8.224615097E0,3.153913975E0,-1.547014832E0,8.943417789E0
3.233643384E0,8.308408737E0,3.170672655E0,-1.448856831E0,9.010105823E0
3.236012864E0,8.322773933E0,3.149125814E0,-1.410551190E0,9.009728853E0
3.238381561E0,8.320379257E0,3.110820293E0,-1.333940029E0,8.982500202E0
3.240750259E0,8.277285576E0,3.007874012E0,-1.393792510E0,8.916469040E0
3.243119791E0,8.205462456E0,2.979144812E0,-1.381822109E0,8.838232304E0
3.245489270E0,8.174339294E0,2.945627451E0,-1.427309871E0,8.805325516E0
3.247857916E0,8.169550896E0,2.890563250E0,-1.434492230E0,8.783774001E0
3.250226666E0,8.078575134E0,2.900139570E0,-1.386610150E0,8.694646251E0
3.252596145E0,8.009146690E0,2.888169050E0,-1.319575429E0,8.615638716E0
3.254965624E0,7.877470970E0,2.840287209E0,-1.269299388E0,8.469527806E0
3.257334322E0,7.743401527E0,2.801981449E0,-1.353092790E0,8.345191870E0
3.259703072E0,7.678760529E0,2.754099607E0,-1.391398430E0,8.275531251E0
3.262072551E0,7.621302605E0,2.720582247E0,-1.422521710E0,8.216409749E0
3.264442030E0,7.508779526E0,2.732552767E0,-1.458433151E0,8.122539126E0
3.266810728E0,7.559056282E0,2.770858288E0,-1.513497472E0,8.191926643E0
3.269179426E0,7.767342567E0,2.845075369E0,-1.367457390E0,8.384271234E0
3.271548957E0,7.731431007E0,2.909715891E0,-1.451250911E0,8.387347685E0
3.273918436E0,7.901412010E0,2.962386370E0,-1.384216189E0,8.551263019E0
3.276287082E0,8.023510933E0,3.038997173E0,-1.300422668E0,8.677749168E0
3.278655832E0,8.171944618E0,3.048573732E0,-1.226205587E0,8.807840870E0
3.281025311E0,8.277285576E0,3.000691652E0,-1.108894825E0,8.873964989E0
3.283394791E0,8.145609856E0,2.914504290E0,-1.192688227E0,8.733143786E0
3.285763489E0,8.085757256E0,2.811558008E0,-1.207052827E0,8.645305394E0
3.288132186E0,7.980417252E0,2.715794086E0,-1.314787269E0,8.531779568E0
3.290501718E0,7.741007805E0,2.689459085E0,-1.503921032E0,8.331756746E0
3.292871197E0,7.484838486E0,2.634394646E0,-1.767271876E0,8.129335286E0
3.295239843E0,7.369922161E0,2.588906765E0,-1.908523798E0,8.041184862E0
3.297608593E0,7.255005836E0,2.550601244E0,-2.023440599E0,7.952043024E0
3.299978072E0,7.171212196E0,2.514689684E0,-2.044987440E0,7.869683742E0
3.302347551E0,7.180788040E0,2.512295485E0,-2.157510042E0,7.907603623E0
3.304716249E0,7.142482758E0,2.603271246E0,-2.262850523E0,7.931744676E0
3.307084999E0,7.111359596E0,2.785222769E0,-2.499866009E0,8.036058190E0
3.309454478E0,6.989260674E0,3.003085852E0,-2.626753330E0,8.047864465E0
3.311823957E0,6.912649155E0,3.240101576E0,-2.760822773E0,8.118196779E0
3.314192655E0,6.828855515E0,3.501058578E0,-2.942774296E0,8.218917165E0
3.316561353E0,6.699574471E0,3.805109024E0,-3.237248659E0,8.357208365E0
3.318930832E0,6.685210228E0,4.128312111E0,-3.483840704E0,8.594890501E0
3.321300311E0,6.524805069E0,4.379692554E0,-3.672974586E0,8.674418158E0
3.323669009E0,6.350036144E0,4.595161438E0,-3.886049271E0,8.748705425E0
3.326037759E0,6.239907742E0,4.714866638E0,-4.029695034E0,8.798003075E0
3.328407239E0,6.206390381E0,4.851329803E0,-3.914778471E0,8.796600076E0
3.330776718E0,6.208784103E0,4.990188122E0,-3.874078751E0,8.857734682E0
3.333145416E0,6.376371384E0,5.028493404E0,-3.708886147E0,8.927468532E0
3.335514114E0,6.211178303E0,5.662929535E0,-3.088814497E0,8.954790998E0
3.337883645E0,6.345247746E0,6.069926739E0,-3.081632137E0,9.306053739E0
3.340253124E0,6.335671902E0,6.424252987E0,-2.983474016E0,9.503309007E0
3.342621770E0,6.402706146E0,6.656480312E0,-2.698576212E0,9.622145796E0
3.344990520E0,6.587051868E0,6.783368111E0,-2.803916693E0,9.862316364E0
3.347359999E0,6.773791790E0,6.886313915E0,-2.547748089E0,9.989824567E0
3.349729478E0,6.871949673E0,7.073053360E0,-2.406496286E0,1.015100983E1
3.352098176E0,7.082630157E0,7.362739563E0,-2.224544764E0,1.045572490E1
3.354466874E0,7.511174202E0,7.542296886E0,-1.930070639E0,1.081800134E1
3.356836405E0,8.016328812E0,7.707489967E0,-1.532650352E0,1.122568244E1
3.359205884E0,8.595700264E0,7.925353050E0,-1.353092790E0,1.176979796E1
3.361574530E0,9.136767387E0,8.313197136E0,-1.381822109E0,1.242977060E1
3.363943280E0,9.282807350E0,8.837504387E0,-1.525467873E0,1.290732537E1
3.366312759E0,9.438423157E0,9.321111679E0,-1.977952719E0,1.341190708E1
3.368682239E0,9.479123116E0,9.613191605E0,-2.162298203E0,1.367270132E1
3.371050936E0,9.522216797E0,9.790355682E0,-2.164692163E0,1.382785483E1
3.373419686E0,9.716138840E0,9.847813606E0,-2.289185524E0,1.402223795E1
3.375789166E0,9.955549240E0,9.814296722E0,-2.253273964E0,1.416017741E1
3.378158645E0,1.027157021E1,9.577280998E0,-2.238909483E0,1.422118777E1
3.380527343E0,1.046309853E1,9.313929558E0,-1.970770359E0,1.414601182E1
3.382896041E0,1.069293118E1,9.064944267E0,-1.604473233E0,1.410979539E1
3.385265572E0,1.102331734E1,8.842292786E0,-1.341122270E0,1.419500883E1
3.387635051E0,1.136327934E1,8.593305588E0,-1.396186709E0,1.431496964E1
3.390003697E0,1.166254139E1,8.296438217E0,-1.314787269E0,1.437269718E1
3.392372447E0,1.172239399E1,7.973235130E0,-1.298028588E0,1.423628735E1
3.394741926E0,1.171760559E1,7.604543686E0,-1.130441666E0,1.401460894E1
3.397111405E0,1.152847195E1,7.331616402E0,-9.700369835E-1,1.369668705E1
3.399480103E0,1.127948475E1,7.065871716E0,-6.947156191E-1,1.332801370E1
3.401848801E0,1.094670582E1,6.812097073E0,-4.624880552E-1,1.290150883E1
3.404218332E0,1.061392593E1,6.567899227E0,-2.805365622E-1,1.248484781E1
3.406587811E0,1.025002289E1,6.345247269E0,-9.140275419E-2,1.205543390E1
3.408956457E0,9.957942963E0,6.168084621E0,8.097232878E-2,1.171377191E1
3.411325207E0,9.665863037E0,6.002891541E0,1.599776298E-1,1.137933249E1
3.413694686E0,9.311535835E0,5.859245300E0,8.336646855E-2,1.100192733E1
3.416064166E0,8.875810623E0,5.830516338E0,-1.392847300E-1,1.062046775E1
3.418432864E0,8.404172897E0,5.818545818E0,-2.422309816E-1,1.022468940E1
3.420801614E0,7.915776730E0,5.773057938E0,-2.374427915E-1,9.800209093E0
3.423171093E0,7.571026802E0,5.753905296E0,-3.116598427E-1,9.514462930E0
3.425540572E0,7.293311119E0,5.787422657E0,-5.582519770E-1,9.327287567E0
3.427909270E0,6.934195995E0,5.842486858E0,-8.599084020E-1,9.108082633E0
3.430277968E0,6.634933472E0,5.931068420E0,-1.128047466E0,8.970641330E0
3.432647499E0,6.419465065E0,6.129778862E0,-1.439280391E0,8.991954663E0
3.435016978E0,6.259060383E0,6.306941986E0,-1.556591153E0,9.020883001E0
3.437385624E0,6.247089863E0,6.366794586E0,-1.709813595E0,9.082162055E0
3.439754374E0,6.271030903E0,6.402706146E0,-1.877400398E0,9.156697376E0
3.442123853E0,6.184843063E0,6.472135067E0,-1.915706038E0,9.154820898E0
3.444493332E0,6.115414619E0,6.448194027E0,-2.033016920E0,9.116504811E0
3.446862030E0,6.120202541E0,6.457770348E0,-2.088081121E0,9.138914584E0
3.449230728E0,6.180055141E0,6.524805069E0,-2.274820805E0,9.270435396E0
3.451600259E0,6.211178303E0,6.553534508E0,-2.401708126E0,9.343219594E0
3.453969739E0,6.223148823E0,6.488893509E0,-2.466348886E0,9.322885662E0
3.456338384E0,6.218360901E0,6.417070389E0,-2.492683887E0,9.276867878E0
3.458707134E0,6.347642422E0,6.364400387E0,-2.700970650E0,9.385808385E0
3.461076614E0,6.381159306E0,6.369188309E0,-2.631541491E0,9.392058582E0
3.463446093E0,6.359612942E0,6.381158829E0,-2.523807049E0,9.355932171E0
3.465814791E0,6.316518784E0,6.438617706E0,-2.507048607E0,9.361597098E0
3.468183489E0,6.388341904E0,6.400311947E0,-2.631541491E0,9.418063278E0
3.470553020E0,6.644510269E0,6.388341427E0,-2.847010612E0,9.647066514E0
3.472922499E0,6.675633907E0,6.417070389E0,-2.921227455E0,9.709606083E0
3.475291197E0,6.785762310E0,6.323700905E0,-3.033750057E0,9.759067715E0
3.477659895E0,6.852796555E0,6.271030426E0,-2.952350855E0,9.746949204E0
3.480029374E0,6.840826035E0,6.309336185E0,-2.744064331E0,9.702294213E0
3.482398853E0,6.895890713E0,6.455376148E0,-2.645905972E0,9.809485631E0
3.484767551E0,6.946166515E0,6.575080872E0,-2.768005371E0,9.957046322E0
3.487136301E0,7.003625393E0,6.500864029E0,-2.803916693E0,9.958611881E0
3.489505780E0,7.008413315E0,6.505652428E0,-2.763216972E0,9.953729891E0
3.491875259E0,7.077842236E0,6.438617706E0,-2.918833256E0,1.000356118E1
3.494243957E0,7.075448036E0,6.321306705E0,-2.918833256E0,9.926755308E0
3.496612655E0,7.065871716E0,6.239907742E0,-2.782369852E0,9.828762573E0
3.498982186E0,6.931802273E0,6.366794586E0,-2.662664890E0,9.781397670E0
3.501351666E0,6.831250191E0,6.328488827E0,-2.830251694E0,9.732732127E0
3.503720311E0,6.804914474E0,6.201601982E0,-2.717729092E0,9.599623928E0
3.506089061E0,6.780973911E0,6.069926739E0,-2.583659649E0,9.460492322E0
3.508458541E0,6.795338631E0,5.940645218E0,-2.516624689E0,9.370234391E0
3.510828020E0,6.790550232E0,5.864034176E0,-2.320308685E0,9.267270454E0
3.513196718E0,6.642116070E0,5.763481617E0,-2.344249725E0,9.101150093E0
3.515565416E0,6.809703350E0,5.643776894E0,-2.437619448E0,9.174217455E0
3.517934947E0,7.032354355E0,5.459431171E0,-2.487895489E0,9.243863935E0
3.520304426E0,7.324434280E0,5.174533367E0,-2.586053848E0,9.333317074E0
3.522673072E0,7.556661606E0,4.932729721E0,-2.131174803E0,9.272370957E0
3.525041822E0,7.487233162E0,4.942306042E0,-1.774454117E0,9.145148268E0
3.527411301E0,7.424986839E0,5.131439686E0,-1.752907276E0,9.194280109E0
3.529780780E0,7.492021084E0,5.342120647E0,-1.872612357E0,9.390170923E0
3.532149478E0,7.544691086E0,5.629412174E0,-1.633202434E0,9.554056479E0
3.534518228E0,7.360345840E0,6.165690422E0,-1.338728309E0,9.694463510E0
3.536887707E0,6.912649155E0,6.733091354E0,-1.518285632E0,9.768542818E0
3.539257186E0,6.426647186E0,7.396256924E0,-1.755301476E0,9.954270129E0
3.541625884E0,6.079503059E0,7.767342567E0,-1.968376160E0,1.005815454E1
3.543994582E0,5.909522057E0,7.951687813E0,-2.550142288E0,1.023010341E1
3.546364114E0,5.856851578E0,7.903806210E0,-3.040932655E0,1.029660791E1
3.548733593E0,5.782634735E0,7.638061047E0,-3.184578419E0,1.009556243E1
3.551102239E0,5.646171093E0,7.298099041E0,-3.220489740E0,9.773077908E0
3.553470989E0,5.385214329E0,6.498469830E0,-3.177396059E0,9.018120048E0
3.555840468E0,4.956670761E0,5.533648014E0,-2.995444536E0,8.010151893E0
3.558209947E0,4.619102478E0,5.059616566E0,-2.370584726E0,7.249517187E0
3.560578645E0,4.324628830E0,4.765142441E0,-1.336334229E0,6.572274048E0
3.562947343E0,4.336599350E0,5.026099682E0,-8.742730618E-1,6.695679601E0
3.565316874E0,4.489821434E0,5.600683212E0,-6.923215389E-1,7.211480990E0
3.567686353E0,4.681349277E0,6.103443623E0,-5.845870972E-1,7.714194526E0
3.570054999E0,4.836965561E0,6.508046627E0,-8.263910413E-1,8.150694994E0
3.572423749E0,4.769931316E0,6.958137035E0,-9.939779639E-1,8.494463371E0
3.574793228E0,4.564038754E0,7.164029598E0,-1.254934788E0,8.586537786E0
3.577162707E0,4.216894150E0,7.305281639E0,-1.460827351E0,8.560569645E0
3.579531405E0,3.903266907E0,7.755372047E0,-1.946829319E0,8.897833025E0
3.581900155E0,3.833838224E0,8.308408737E0,-2.023440599E0,9.371354392E0
3.584269634E0,3.735679865E0,8.787227631E0,-2.083292961E0,9.772961836E0
3.586639114E0,3.498664141E0,9.098461151E0,-1.843883038E0,9.920814016E0
3.589007811E0,3.273618937E0,9.172677994E0,-1.585320473E0,9.867514556E0
3.591376509E0,3.240101814E0,9.177467346E0,-1.642778754E0,9.870303374E0
3.593745989E0,3.350230217E0,9.074520111E0,-1.815153956E0,9.842039506E0
3.596115468E0,3.465147018E0,9.072126389E0,-1.848671317E0,9.885762829E0
3.598484166E0,3.469935179E0,9.196619034E0,-1.872612357E0,1.000624449E1
3.600852916E0,3.235313416E0,9.546157837E0,-2.047381401E0,1.028533679E1
3.603222395E0,3.010268211E0,1.008961773E1,-2.133569002E0,1.074310092E1
3.605591874E0,3.137155533E0,1.076714802E1,-2.420860767E0,1.147317690E1
3.607960572E0,3.086879253E0,1.125314999E1,-1.781636596E0,1.180408561E1
3.610329270E0,3.230525255E0,1.150692463E1,-1.149594426E0,1.200696361E1
3.612698801E0,3.393323898E0,1.160029411E1,-1.058618665E0,1.213268907E1
3.615068280E0,3.443599939E0,1.148058987E1,-9.724310637E-1,1.202530442E1
3.617436926E0,3.489088058E0,1.120766163E1,-9.101845026E-1,1.177343835E1
3.619805676E0,3.750044823E0,1.087009430E1,-7.809031606E-1,1.152525904E1
3.622175155E0,4.123524189E0,1.062829018E1,-9.437019229E-1,1.143916855E1
3.624544634E0,4.434757233E0,1.032663441E1,-1.329151750E0,1.131693838E1
3.626913332E0,4.925547123E0,1.013749981E1,-1.745725036E0,1.140515115E1
3.629282030E0,5.066799164E0,9.962731361E0,-1.642778754E0,1.129722054E1
3.631651561E0,4.920759201E0,9.807113647E0,-1.175929546E0,1.103522358E1
3.634021041E0,4.628679276E0,9.615587234E0,-6.324690580E-1,1.069037917E1
3.636389739E0,4.688531876E0,9.361811638E0,-7.713267803E-1,1.049860911E1
3.638758436E0,4.923153400E0,9.210984230E0,-1.116077065E0,1.050358500E1
3.641127916E0,5.138622284E0,9.076913834E0,-1.360275149E0,1.051884747E1
3.643497395E0,5.224809647E0,9.079307556E0,-1.649960995E0,1.060447230E1
3.645866093E0,5.176927567E0,9.048185349E0,-1.745725036E0,1.056966381E1
3.648234843E0,4.875271320E0,8.839899063E0,-1.705025315E0,1.023812469E1
3.650604322E0,4.827389240E0,8.444871902E0,-1.831912518E0,9.898254988E0
3.652973801E0,4.954276562E0,8.073786736E0,-1.951617599E0,9.671592410E0
3.655342499E0,4.841753483E0,7.714672089E0,-2.253273964E0,9.382749372E0
3.657711197E0,4.544885635E0,7.652425289E0,-2.535777569E0,9.254499777E0
3.660080728E0,4.341387272E0,7.705095768E0,-2.408890247E0,9.166182218E0
3.662450207E0,4.152253151E0,7.779313087E0,-2.341855526E0,9.123771460E0
3.664818853E0,3.874537706E0,7.997176170E0,-2.298761845E0,9.178843890E0
3.667187603E0,3.704556704E0,8.045058250E0,-2.365796566E0,9.167534893E0
3.669557082E0,3.764409304E0,7.958869934E0,-2.399314165E0,9.125299803E0
3.671926561E0,3.872143745E0,7.786495209E0,-2.143145323E0,8.956342819E0
3.674295259E0,4.097188950E0,7.568632126E0,-1.635596514E0,8.760498017E0
3.676663957E0,4.121129990E0,7.312463284E0,-3.356008530E-1,8.400503532E0
3.679033489E0,3.881720304E0,7.171212196E0,-1.584375203E-1,8.155926639E0
3.681402968E0,4.092401028E0,6.862372875E0,-4.050297141E-1,8.000247291E0
3.683771614E0,4.626285076E0,6.407494545E0,-4.744585752E-1,7.917298206E0
3.686140364E0,5.179321766E0,5.998103619E0,-7.425976396E-1,7.959527136E0
3.688509843E0,5.418731689E0,5.856851578E0,-7.809031606E-1,8.017179883E0
3.690879322E0,5.174533844E0,6.031620979E0,-8.144205809E-1,7.988712851E0
3.693248020E0,4.939912319E0,6.309336185E0,-8.623025417E-1,8.059405840E0
3.695616770E0,4.678955078E0,6.661268711E0,-7.809031606E-1,8.177709411E0
3.697986249E0,4.315052032E0,7.082630157E0,-5.151582360E-1,8.309555463E0
3.700355728E0,3.872143745E0,7.630878448E0,-4.385470748E-1,8.568321108E0
3.702724426E0,3.335865498E0,8.248556137E0,-9.341254830E-1,8.946466754E0
3.705093124E0,3.015056372E0,8.736951828E0,-1.542226672E0,9.370344459E0
3.707462655E0,2.622424126E0,9.237318993E0,-2.116810322E0,9.832906814E0
3.709832134E0,2.301615000E0,9.663469315E0,-2.511836529E0,1.024643321E1
3.712200780E0,2.129239798E0,9.974700928E0,-2.849404573E0,1.058996823E1
3.714569530E0,2.117269516E0,1.028832817E1,-3.294707060E0,1.100852494E1
3.716939009E0,2.301615000E0,1.053252602E1,-3.747191668E0,1.141371899E1
3.719308489E0,2.304008961E0,1.069293118E1,-3.886049271E0,1.160812704E1
3.721677186E0,2.193880558E0,1.082221222E1,-3.337800741E0,1.153578359E1
3.724045884E0,2.258521080E0,1.109514046E1,-3.009809256E0,1.171588712E1
3.726415416E0,2.406955242E0,1.134173203E1,-3.356953621E0,1.207052014E1
3.728784895E0,2.711005688E0,1.147340679E1,-3.692127228E0,1.235396368E1
3.731153541E0,2.399772882E0,1.179900455E1,-3.962660551E0,1.267588644E1
3.733522291E0,2.246550798E0,1.197616768E1,-3.955478191E0,1.281098710E1
3.735891770E0,2.593694925E0,1.173436356E1,-3.131908417E0,1.241899319E1
3.738261249E0,2.373437881E0,1.168408775E1,-2.435225487E0,1.216887165E1
3.740629947E0,2.306403160E0,1.172957611E1,-2.765610933E0,1.226992482E1
3.742998645E0,2.567359924E0,1.157395935E1,-2.823069572E0,1.218677947E1
3.745368176E0,2.809164047E0,1.138961411E1,-2.387343645E0,1.197138763E1
3.747737655E0,2.275279999E0,1.146861935E1,-2.100051641E0,1.187924011E1
3.750106353E0,2.722976208E0,1.133694363E1,-2.016258001E0,1.183242099E1
3.752475051E0,3.594428301E0,1.105922794E1,-1.640384674E0,1.174381963E1
3.754844582E0,3.070120811E0,1.100177002E1,-1.293240428E0,1.149508835E1
3.757214061E0,2.952809811E0,1.072405434E1,-1.075377345E0,1.117501068E1
3.759582707E0,3.297559977E0,1.036254501E1,-1.128047466E0,1.093291965E1
3.761951457E0,3.625551462E0,9.984277725E0,-9.676428437E-1,1.066615009E1
3.764320936E0,3.860173225E0,9.653891563E0,-7.641444802E-1,1.042508880E1
3.766690416E0,3.659069061E0,9.510246277E0,-4.385470748E-1,1.019930851E1
3.769059114E0,3.694980383E0,9.258866310E0,4.361197352E-3,9.968926943E0
3.771427811E0,3.836232185E0,9.017062187E0,4.089638591E-1,9.807718354E0
3.773797343E0,4.039731026E0,8.835109711E0,2.533474565E-1,9.718167281E0
3.776166822E0,3.757226944E0,8.815958023E0,2.030714005E-1,9.585359053E0
3.778535468E0,3.529787540E0,8.916509628E0,2.111987770E-2,9.589785716E0
3.780904218E0,3.079696894E0,9.117613792E0,-3.810887039E-1,9.631232674E0
3.783273697E0,3.084485292E0,9.476729393E0,-5.199464560E-1,9.979618922E0
3.785643176E0,3.369382858E0,9.821478844E0,-7.018979192E-1,1.040705762E1
3.788011874E0,3.721315384E0,1.000821877E1,-7.809031606E-1,1.070618703E1
3.790380572E0,3.556122780E0,1.028593445E1,-1.101712465E0,1.093893171E1
3.792750103E0,3.553728580E0,1.048464394E1,-1.319575429E0,1.114890239E1
3.795119582E0,3.532181740E0,1.061392593E1,-1.183111787E0,1.124862147E1
3.797488228E0,3.580063820E0,1.065941429E1,-9.293373227E-1,1.128289138E1
3.799856978E0,3.489088058E0,1.064026070E1,-7.593563199E-1,1.122343553E1
3.802226457E0,3.618369102E0,1.047746181E1,-9.053962827E-1,1.112158008E1
3.804595936E0,3.661463022E0,1.028832817E1,-9.245491028E-1,1.095950725E1
3.806964634E0,3.723709583E0,1.008483028E1,-7.952678204E-1,1.077971548E1
3.809333332E0,3.733285904E0,9.895695686E0,-5.989516973E-1,1.059343947E1
3.811702864E0,3.706950903E0,9.668256760E0,-5.558578968E-1,1.036945764E1
3.814072343E0,3.584851980E0,9.486305237E0,-4.289706945E-1,1.015013136E1
3.816441041E0,3.501058578E0,9.289989471E0,-2.805365622E-1,9.931768036E0
3.818809739E0,3.496270180E0,9.108037949E0,-3.619359136E-1,9.762748488E0
3.821179270E0,3.498664141E0,8.918904305E0,-3.571477234E-1,9.587234182E0
3.823548749E0,3.489088058E0,8.837504387E0,-5.319169164E-1,9.516204857E0
3.825917395E0,3.369382858E0,8.825533867E0,-6.659864783E-1,9.470286525E0
3.828286145E0,3.426841259E0,8.801592827E0,-7.593563199E-1,9.475647699E0
3.830655624E0,3.426841259E0,8.873415947E0,-8.407557011E-1,9.549221001E0
3.833025103E0,3.194613695E0,9.002696991E0,-9.820075035E-1,9.603043711E0
3.835393801E0,2.926474810E0,9.153526306E0,-1.132835746E0,9.676498100E0
3.837762499E0,2.775646448E0,9.261260033E0,-1.345910549E0,9.761486864E0
3.840132030E0,2.675094128E0,9.359417915E0,-1.362669349E0,9.829125091E0
3.842501509E0,2.785223007E0,9.263653755E0,-1.190294027E0,9.746258152E0
3.844870155E0,2.564965725E0,9.278018951E0,-1.173535347E0,9.697312517E0
3.847238905E0,2.466807604E0,9.294776917E0,-1.168747187E0,9.687310652E0
3.849608384E0,2.289644480E0,9.242107391E0,-1.113682985E0,9.586412815E0
3.851977864E0,2.342314482E0,9.215771675E0,-1.001160264E0,9.561339162E0
3.854346561E0,2.323161840E0,9.151130676E0,-8.239969611E-1,9.477301545E0
3.856715259E0,2.452443123E0,9.031426430E0,-6.492277384E-1,9.380972086E0
3.859084791E0,2.514689684E0,8.990727425E0,-5.007936358E-1,9.349205212E0
3.861454270E0,2.462019444E0,8.957208633E0,-4.529116750E-1,9.300443819E0
3.863822968E0,2.622424126E0,8.825533867E0,-3.810887039E-1,9.214791638E0
3.866191666E0,2.737340927E0,8.763286591E0,-1.799844205E-1,9.182626074E0
3.868561145E0,2.912110329E0,8.693859100E0,3.309036791E-2,9.168678618E0
3.870930624E0,3.010268211E0,8.619642258E0,2.485592812E-1,9.133549642E0
3.873299322E0,3.079696894E0,8.576547623E0,1.887068003E-1,9.114675657E0
3.875668072E0,3.192219734E0,8.540636063E0,2.102536708E-1,9.120139132E0
3.878037551E0,3.321501017E0,8.569364548E0,1.934949905E-1,9.192595829E0
3.880407030E0,3.520211220E0,8.555001259E0,2.198300809E-1,9.253553849E0
3.882775728E0,3.699768782E0,8.444871902E0,2.653179765E-1,9.223586294E0
3.885144426E0,3.893690825E0,8.452054977E0,1.432189196E-1,9.306909973E0
3.887513957E0,3.982272148E0,8.519088745E0,-1.479159296E-2,9.403913191E0
3.889883436E0,4.032548428E0,8.638793945E0,-1.718568802E-2,9.533651084E0
3.892252082E0,3.946360826E0,8.830322266E0,5.463725328E-2,9.672194183E0
3.894620832E0,3.635128021E0,9.055367470E0,9.149387479E-3,9.757762011E0
3.896990311E0,3.496270180E0,9.328294754E0,-3.068716526E-1,9.966702484E0
3.899359791E0,3.419658899E0,9.515033722E0,-6.444395781E-1,1.013139853E1
3.901728489E0,3.462752819E0,9.622769356E0,-8.886376023E-1,1.026537987E1
3.904097186E0,3.484299660E0,9.689804077E0,-1.010736704E0,1.034670169E1
3.906466718E0,3.436417818E0,9.795144081E0,-1.061012745E0,1.043453703E1
3.908836197E0,3.410082817E0,9.941184044E0,-1.106500626E0,1.056788288E1
3.911204895E0,3.364594698E0,1.008483028E1,-1.250146508E0,1.070453949E1
3.913573593E0,3.273618937E0,1.026917553E1,-1.386610150E0,1.086716314E1
3.915943072E0,3.256860256E0,1.036015129E1,-1.568561673E0,1.097270519E1
3.918312551E0,3.151520014E0,1.058519745E1,-1.501526952E0,1.114598881E1
3.920681249E0,3.024632692E0,1.092994690E1,-1.578138232E0,1.145000709E1
3.923049999E0,2.837893009E0,1.122681522E1,-1.530256152E0,1.168061217E1
3.925419478E0,2.620029926E0,1.151410675E1,-1.391398430E0,1.189013039E1
3.927788957E0,2.430896282E0,1.177745819E1,-1.286058068E0,1.209428475E1
3.930157655E0,2.337526560E0,1.205277920E1,-1.051436424E0,1.232229830E1
3.932526353E0,2.157968998E0,1.240710640E1,-6.923215389E-1,1.261239186E1
3.934895884E0,1.925741434E0,1.278058529E1,-6.157103777E-1,1.293951080E1
3.937265364E0,1.849130273E0,1.296014309E1,-5.941634774E-1,1.310487016E1
3.939634009E0,2.076569557E0,1.303675365E1,-6.348631382E-1,1.321635873E1
3.942002759E0,2.215427399E0,1.301281261E1,-6.037398577E-1,1.321385305E1
3.944372239E0,2.241762638E0,1.304633045E1,-4.433352649E-1,1.324495316E1
3.946741718E0,2.131633997E0,1.313730621E1,-3.595418334E-1,1.331397568E1
3.949110416E0,2.052628756E0,1.320912933E1,-3.284185529E-1,1.337169553E1
3.951479114E0,2.038264036E0,1.321631145E1,-3.092657328E-1,1.337613749E1
3.953848645E0,1.976017475E0,1.326419258E1,-3.379949331E-1,1.341483099E1
3.956218124E0,1.940105915E0,1.324025154E1,-4.074237943E-1,1.338784023E1
3.958586770E0,1.906588554E0,1.309421158E1,-5.271286964E-1,1.324278375E1
3.960955520E0,1.901800513E0,1.269439793E1,-7.162625194E-1,1.285603422E1
3.963324999E0,1.930529594E0,1.214614868E1,-9.604606032E-1,1.233605921E1
3.965694478E0,1.935317874E0,1.153326035E1,-1.058618665E0,1.174232613E1
3.968063176E0,1.834765673E0,1.096585846E1,-1.065800905E0,1.116925908E1
3.970431874E0,1.755760431E0,1.048703861E1,-9.700369835E-1,1.067715530E1
3.972801405E0,1.621690869E0,1.016383457E1,-8.670907617E-1,1.032885574E1
3.975170884E0,1.499591827E0,9.929214478E0,-7.090802193E-1,1.006682028E1
3.977539582E0,1.425374866E0,9.826267242E0,-6.276808977E-1,9.948929829E0
3.979908280E0,1.375098705E0,9.792750359E0,-5.462815166E-1,9.903902238E0
3.982277811E0,1.286517024E0,9.775991440E0,-4.912172556E-1,9.872508753E0
3.984647291E0,1.260182023E0,9.802326202E0,-4.744585752E-1,9.894380660E0
3.987015936E0,1.231452823E0,9.835844040E0,-4.888231754E-1,9.924678943E0
3.989384686E0,1.212299943E0,9.878936768E0,-5.151582360E-1,9.966365979E0
3.991754166E0,1.241029143E0,9.934001923E0,-5.510697365E-1,1.002637648E1
