Time (s),Acceleration x (m/s^2),Acceleration y (m/s^2),Acceleration z (m/s^2),Absolute acceleration (m/s^2)
0.021146688,-2.8220950607556463,4.319539716846543,7.971266562158399,9.559547365387067
0.04115413322272728,-4.154918214135649,3.9051314549882314,7.9686543496475695,9.768451297530957
0.06116157844545454,-3.8668493318272907,4.009058269174532,7.739806106491285,9.55340469220577
0.08116902366818182,-3.878387974321467,4.087467776683995,7.750080834301435,9.569059896094968
0.10117646889090909,-4.1900058656207255,3.9591954314554583,8.06749280762791,9.927266392386418
0.12118391411363635,-4.7713699221341965,3.918756542937421,9.174577025244378,11.048496534603895
0.14119135933636365,-3.891606981959993,3.9439543389519,9.204334833384463,10.751640355719307
0.1611988045590909,-2.662284068740429,3.9809298607501096,9.086252393462313,10.266208993080115
0.18120624978181818,-1.9878192725969313,3.7196414972810445,8.579247096043884,9.563015945029045
0.20121369500454545,-2.50262396687809,3.6776619441910507,8.353114205034712,9.46486119235442
0.2212211402272727,-3.47864603466278,4.109984489705706,8.498409861358686,10.05565612088301
0.24122858545,-1.8706977405336662,4.53162802401139,8.51738664444642,9.84050938208157
0.26123603067272727,-0.5079203165870102,5.328797598182488,7.970172813093583,9.583082385624824
0.28124347589545456,-2.431053310434966,5.742854070892721,7.94168840365325,10.11049422253681
0.30125092111818186,-4.419277029674772,5.26679442435651,8.459737207696902,10.898786933916451
0.3212583663409091,-4.311906779291016,5.109451026907566,8.686099265106385,10.957636287369116
0.3412658115636364,-3.357944155547101,5.13523062991644,9.143938147884391,11.019779969459995
0.3612732567863637,-1.98135331680105,4.946670739823241,8.31472470264841,9.8632440820742
0.3812807020090909,-2.1514903408650445,4.858463258572494,7.78371768011356,9.438348140090445
0.4012881472318182,-2.5722279500883865,4.614699306646108,8.138116071431249,9.690301323873033
0.42129559245454545,-2.4336400998302166,4.4011019612406885,8.952467467083103,10.279894026301402
0.44130303767727275,-1.8149305363600634,4.360097058723902,9.002907640840634,10.15548530831598
0.46131048290000004,-1.8218103329127484,4.554202741293977,8.731510496612234,10.026300375351553
0.4813179281227273,-1.9443837853194506,4.746696724888,8.434982379182513,9.860860258421829
0.5013253733454546,-1.6214694152978963,4.766884466252658,8.163554806009799,9.602667643512554
0.5213328185681818,-1.1005476068758047,4.637283349581231,7.803926665044235,9.133903269742154
0.541340263790909,-1.0326744359577966,4.597754828884785,7.482031196939182,8.851243463137498
0.5613477090136363,-1.9242683238055744,4.710350645653619,7.982954386494859,9.458248338291362
0.5813551542363636,-2.401177947885085,4.725530608620466,8.515390805899468,10.042021777589184
0.6013625994590909,-1.6586586016206823,4.710897505655376,8.402039190914186,9.759264714396064
0.6213700446818181,-1.4576453685154316,4.794800457784703,8.316397651256747,9.725976968025723
0.6413774899045455,-1.6167498869085832,4.9202978580204375,8.45888558966128,9.90280342303278
0.6613849351272727,-1.9960535481362285,5.026042963113716,8.868631565565586,10.401893108719971
0.6813923803499999,-1.6856165690277156,5.147859854236702,8.915673739174382,10.419011594500088
0.7013998255727273,-0.8889080515699264,4.88650482313021,8.5004877629183,9.857789021521322
0.7214072707954545,-1.1841010403015466,4.91629221248069,8.516183559806812,9.893007618685552
0.7414147160181818,-2.037655393954783,5.054452781096375,8.985553000960852,10.518806363177923
0.7614221612409091,-1.3500405846853747,4.882559103077973,8.76101723650985,10.111237363340152
0.7814296064636364,-0.5103749378255688,4.855113213670712,8.266856452929842,9.610784357461426
0.8014370516863636,-0.9781748415811822,4.941651275361591,7.970711817802718,9.417609475264795
0.8214444969090908,-0.9773449244559047,5.001646985433283,7.37307631850663,8.97853881255738
0.8414519421318182,-0.1724265097291411,5.013337054142667,6.609864507975773,8.277144789401477
0.8614593873545454,0.17676796420991275,4.266595280472619,6.628364005724129,7.915515502878391
0.8814668325772727,0.042530520766737356,4.29532907412469,8.033115952465216,9.08382020353419
0.9014742778,-0.7913949641576244,4.1870183232319,8.507654614490027,9.53966467740004
0.9214817230227272,-1.5496668526672253,3.9626027482518325,8.035831163051434,9.06965365938037
0.9414891682454545,-1.4882318631226077,4.413539363324927,8.698637672512525,9.890604146239308
0.9614966134681818,-0.570720662753647,4.192608183482477,8.419821568354497,9.401006309872649
0.9815040586909091,0.6067625521639449,4.08361202900734,7.58455532458612,8.653377491794263
1.0015115039136364,0.13036560198669145,3.506648341406918,7.6022490486588135,8.356701185661562
1.0215189491363637,-0.5913387170564154,3.5460627186497087,6.906463054039638,7.805520935568388
1.041526394359091,-0.23116283754968023,4.009887234297688,7.08659039335865,8.123130236389395
1.0615338395818181,0.690839892995521,3.694650760405812,7.015643125096157,7.985638485675609
1.0815412848045454,0.8422735872006292,3.565366086291306,8.345322696196568,9.089769950227081
1.1015487300272726,-0.11764866328642733,2.7585747094428927,7.724810795986651,8.227024269531505
1.12155617525,-0.9961005040942971,3.2073677579460536,7.07301531766484,7.8054148307356055
1.1415636204727273,-1.6877919721931027,3.117821087382138,8.39566115719895,9.132132690132039
1.1615710656954545,-3.0057233959754104,2.3552301207925868,8.837368953066703,9.738024963164944
1.1815785109181818,-1.7076040646267214,2.4428980404963103,8.508979165527549,9.089177488368394
1.201585956140909,-1.0884456977122858,1.2973000906496488,9.674792417027053,9.746538681980248
1.2215934013636363,-2.59212697951921,1.0971609743385968,9.80480872735387,10.278283153791993
1.2416008465863637,-3.6526725085738434,1.9350848330060142,10.880371475829676,11.618160735257474
1.261608291809091,-2.888822030932151,1.64053326811921,11.298658292778963,11.81191560189882
1.2816157370318182,-2.008999607920576,1.7760614923200784,10.591184865802385,10.885739689001975
1.3016231822545454,-3.112557417819165,1.380313361494861,10.358054580509963,10.958074395859889
1.3216306274772727,-3.991708191461111,1.6794197535044382,8.35121832139663,9.349171934036342
1.3416380727,-1.8205318715882672,1.5908825529948374,7.706248548758326,8.12071307928106
1.3616455179227271,-1.185920478915229,1.1505343721486718,9.51541106709523,9.650933181258775
1.3816529631454546,-1.0315755001541167,1.1639773079668783,11.665614695786195,11.788084549083065
1.4016604083681818,-1.7155379940415048,1.4095124781598123,10.642732984041729,10.862421041783756
1.421667853590909,-1.991406877185743,0.9073127962532404,7.313304482690557,7.654498500793492
1.4416752988136363,-2.0510100819490344,1.2327291453539073,7.548976095674947,7.909356081577731
1.4616827440363636,-0.6386184210676175,0.5421935615437505,9.73933509478811,9.839228419333226
1.4816901892590908,-0.948409559694865,0.31659505371099045,10.219833893972384,10.27945852339456
1.5016976344818183,1.1689850674636264,-0.10688357671100888,9.275925934524954,9.290747200799336
1.5217050797045455,-2.03467629286431,-0.26466068856001856,8.470053845883134,8.757380632738705
1.5417125249272727,-2.6417458301241297,0.7045366220454535,9.504139677624346,9.95248421013652
1.56171997015,-0.19576049921458386,-0.08759299519864215,11.225093542617419,11.147408561163559
1.5817274153727272,0.4079405394176155,-0.7284056744642401,11.772704867452422,11.874884687855696
1.6017348605954544,0.18640069295361403,-0.6827312316319749,11.339211388571098,11.298400759849187
1.6217423058181817,-0.6632921149145499,-1.008666473031815,9.144436017848278,9.283986094504423
1.6417497510409091,-0.44086763526197315,-0.9609894611363514,8.507210315330497,8.504805345174043
1.6617571962636364,1.3871358194068932,-0.7600106629078591,9.694235817377244,9.89519962897156
1.6817646414863636,2.737619580991959,-0.7762101210203002,11.854521901084382,12.142924050489208
1.7017720867090909,1.8848734710016724,-1.1491105582559877,11.669085323655796,11.919990254745292
1.721779531931818,1.2445344875663789,-1.0728962527722696,11.476141940281744,11.562093504990584
1.7417869771545453,-0.037909651453512196,0.07264244013028534,12.053624041368883,12.084895065651734
1.7617944223772728,-0.23535852970104826,1.383669041572061,11.809404879909819,11.845165073973257
1.7818018676,0.5636228575121234,1.5205313133611758,9.65367672549664,9.87393858014697
1.8018093128227273,2.1466707603139072,1.4790353346943999,9.805978586033804,10.116294844263983
1.8218167580454545,2.8076313952633725,1.5469981010098028,10.196648233198252,10.754340261082634
1.8418242032681817,2.893064385481542,1.9256139960302632,9.61302712324041,10.16833254773245
1.861831648490909,3.3253388677950495,2.0184362452027536,8.293216652952042,9.235685988561439
1.8818390937136364,3.679309741600105,1.8476351976682026,9.190806959388025,10.030661824581777
1.9018465389363637,3.6746752382615764,2.6592384218394307,10.06436738954922,11.09737017092404
1.921853984159091,4.834247719220606,2.595873601915877,8.99009444207549,10.45363570571079
1.9418614293818182,4.669430374148283,2.767938500448498,8.865300213723426,10.47034273313974
1.9618688746045454,5.530483453009696,2.1593875996618377,7.943823441373962,9.824542643182044
1.9818763198272726,5.888872041392362,2.164861420064852,7.634568572699043,9.981368948515389
2.00188376505,7.086833822212098,1.9894147586949211,7.759792389471559,10.588165214155467
2.0218912102727273,6.802698458185897,2.452781810611947,8.719005066818085,11.422515983283638
2.0418986554954546,6.4147981521737565,2.947847918195876,8.44562495980316,10.924194425775607
2.061906100718182,6.29145445547764,3.2005760039092244,8.025408009167762,10.76877240534634
2.081913545940909,6.893320454167016,3.003785928763785,7.497669781874575,10.534692753415555
2.1019209911636363,7.0350724818948285,3.2698818893979924,6.659655710916609,10.310479799947164
2.1219284363863635,7.107239058372874,3.1934250527746424,6.4386785471058054,10.021012973224641
2.1419358816090908,7.6938735279576145,3.276166166527298,6.6808693020300804,10.793770760009759
2.161943326831818,8.29093622888933,3.1470889054481734,6.373767062614577,10.827929300962811
2.1819507720545452,8.267232909576135,3.6084144062816996,6.331940476533545,11.11129097008029
2.201958217277273,8.351621902603275,3.7061760582216348,6.1732045913614915,10.937963961229793
2.2219656625,8.41990645377674,3.327455391967985,5.95959516715401,10.93164260032833
2.2419731077227274,9.108075302063977,2.8938536797608867,5.808667910499613,11.086547496378248
2.2619805529454546,8.434381631903898,2.928764839762911,5.531353547568929,10.598471697856786
2.281987998168182,7.93454488920515,3.0805337063236,5.550635224266831,10.070053879034285
2.301995443390909,7.8930871749963165,3.406291178793021,5.409370394320639,10.24901686013874
2.3220028886136364,8.513838576947144,3.7856940458312027,4.989369474694134,10.478653167717344
2.3420103338363636,8.71373122152181,4.258561962472603,4.189893332711741,10.655795685257251
2.362017779059091,9.678948631081116,4.223966384415077,4.213517942230136,11.275041496717597
2.382025224281818,9.794538571855739,4.272317191208051,3.571960537505698,11.36528156461078
2.4020326695045453,10.186123148217773,4.938063074199559,3.304200413928608,11.697985100338427
2.4220401147272725,9.397203418045875,5.8082694213643125,2.57079108241214,11.429903122157883
2.44204755995,9.75488266843868,5.585428000214352,2.6062126170385245,11.462341689299976
2.4620550051727275,8.898635662552984,5.136538957735746,2.7935417892505194,10.727958292814739
2.4820624503954547,7.346603983990319,5.269350760867803,1.6970171647003611,9.116115017743189
2.502069895618182,8.11748598694854,5.151598111232517,2.6428321196324904,10.072624941642296
2.522077340840909,10.621140927603864,4.742283103359131,3.4884429762358526,12.027315033848067
2.5420847860636364,10.901234939105391,4.688423467371533,2.024246850198391,12.16961619892171
2.5620922312863637,9.493479897323626,4.446091266117222,0.6723203431881396,10.431376053088995
2.582099676509091,10.518570246081303,4.127701498422478,0.22664513532909375,11.407308328688915
2.602107121731818,10.955639562697504,4.468046248157649,-0.7714978011981173,11.752415231237995
2.6221145669545454,10.768270733583357,4.244152081418741,-1.0428059687455251,11.726752762836476
2.6421220121772726,9.47694033062874,4.699536257792385,-0.7282114826781475,10.50713482681749
2.6621294574,7.011330739052602,4.4625108612275115,0.13251566190362363,8.426894407170074
2.682136902622727,8.660079571312544,3.4854220015963846,1.0947106291620292,9.273005911317473
2.7021443478454543,7.8995975286313245,4.078632707603286,1.4744283661797453,9.135235823584699
2.722151793068182,8.172782362396404,4.019668096356163,1.8891553516967787,9.18824613843653
2.7421592382909092,8.520053862694468,3.027460713875446,2.113620469314575,9.427077922178016
2.7621666835136365,10.99160831120961,2.4937006097387915,1.352879288963966,11.201811994852159
2.7821741287363637,12.308318995871447,3.84598554214944,-1.9186642762211792,13.39628473491974
2.802181573959091,8.655478856965173,2.720468546290078,-0.5992017314309929,9.143097108399731
2.822189019181818,8.414786606891449,2.6800660088635837,-0.6472724760306521,8.94483391421011
2.8421964644045454,8.90175148916318,3.0918923800036904,-0.6563487208412918,9.356703273436828
2.8622039096272727,8.712537443722596,3.169410512747257,-0.10613947091948056,9.371413258942063
2.88221135485,8.495428425283535,3.6589378994707875,-0.42700763055236285,9.144317464221974
2.902218800072727,8.315850625780598,2.9399422304025817,-0.2976719755362685,8.955483062103367
2.9222262452954544,7.584365775889871,1.546485592818896,-0.7416784912090407,7.616824241865069
2.9422336905181816,7.412017744524955,0.7912733431950746,2.4405907837348666,7.9422925550785575
2.962241135740909,8.777844691055677,3.378564675983059,2.3102453437756663,9.686476074307206
2.9822485809636365,8.979209321983904,5.013119880539949,-0.20706089874139955,10.287795226478938
3.002256026186364,9.290621563515051,3.70218527155934,-0.32475200027662604,9.96637692311409
3.022263471409091,9.346553022228855,3.0880998382857414,-1.0853384559290093,9.95820417304917
3.0422709166318183,9.534992197495942,3.5233876722531288,-1.0114144043870867,10.152102033200594
3.0622783618545455,9.423565519388777,3.7553164135331647,-0.855523614940114,10.250663477992914
3.0822858070772727,9.050567515472634,3.3651628735794286,-0.7163957149541637,9.608594472375184
3.1022932523,8.470459199490225,3.414269671180436,-0.8128594904188166,9.248967348887776
3.122300697522727,8.282101864936207,3.335298736636325,-0.39878046936299283,8.853785797996752
3.1423081427454544,7.363395003846611,3.5599698251786775,-0.8371554335638735,8.299599145239181
3.1623155879681817,7.64968486923941,3.0203642001196798,-0.3327256855146212,8.161059208579125
3.182323033190909,8.674917049769384,3.3255806121741265,-0.2502399739167136,9.385679898221115
3.202330478413636,9.16574184211889,3.422098887563245,-1.1314177461737442,9.754157144824397
3.2223379236363634,8.285914379216832,3.1872863049115243,-1.3807215665988823,9.079139614020407
3.242345368859091,8.297892941207685,3.015124617293866,-1.4411823097875935,8.853302622187693
3.2623528140818183,7.653267186331825,2.8081290774542613,-1.3656726741582246,8.357326804359326
3.2823602593045456,8.065134111779022,2.896430390485041,-1.3293299308732491,8.586272472051165
3.302367704527273,7.1765540126687215,2.6135205973741127,-2.083188651174423,8.003933680969451
3.32237514975,6.570326854196792,4.258389629180782,-3.6423022801648997,8.552604308279152
3.3423825949727273,6.317353874835455,6.274046674118337,-2.9589560106415385,9.48661344001274
3.3623900401954545,8.71614183547238,8.585373087619434,-1.6956402688930847,12.249347990899281
3.3823974854181817,10.685941193019161,9.387449479711371,-2.014219524527112,14.494737161332504
3.402404930640909,11.20271478779788,6.70306790760839,-0.31232448989313566,12.892119250055375
3.4224123758636362,7.660706446038903,5.874220848017366,-0.4402478175001162,9.826093677562948
3.4424198210863635,6.294202925131464,6.326000974511124,-1.84814063321906,8.994143915353925
3.4624272663090907,6.19068198508549,6.499589339319363,-2.726872432325088,9.482629792361266
3.4824347115318184,7.087451330428948,6.320881979756108,-2.706722099873327,9.77054811113479
3.5024421567545456,6.680547632269242,6.34964283337154,-2.8962131099096697,9.758519093847436
3.522449601977273,7.427008655046021,5.178047302121694,-1.8508199376464394,9.100662015463927
3.5424570472,6.3106050556524025,7.132600286430801,-2.432964302469193,10.016981399769893
3.5624644924227273,4.781338841761224,5.836078919136112,-1.7611469568401483,7.687348161966853
3.5824719376454546,3.8814778612295373,7.9515946265398405,-1.4092669565405325,9.064519818623731
3.602479382868182,3.198851311853946,10.223634105217783,-1.9974035299434094,10.829575677737385
3.622486828090909,3.931965101619117,10.956658656938842,-0.9866927305183465,11.764927890205026
3.6424942733136363,5.320519988465645,8.780671249720873,-1.4844424321935048,10.267708313213353
3.6625017185363635,3.9624440530489244,8.170495559101152,-2.302750306829696,9.461642313454595
3.6825091637590908,4.682352026197388,6.5285641781177635,-0.7509598732037001,7.988059714269288
3.702516608981818,3.6584534312327386,7.847417155068434,-1.202253995733612,8.991669784790556
3.7225240542045452,2.1326362451757532,11.07759378987766,-3.6227751128310364,11.686922759413001
3.742531499427273,2.594911924920376,11.727393668347668,-2.751510159818337,12.437844877237424
3.76253894465,3.470103064076044,9.973048047267735,-0.6895456063627464,10.502484202049468
3.7825463898727274,3.5658026214788543,9.33264619353311,-0.29094186032104136,10.11248076825924
3.8025538350954546,3.5751420137625236,10.524439836939623,-1.0361503270310806,11.05952918886499
3.822561280318182,3.5319427406658632,8.932953957945642,-0.37901117504869775,9.708387723477678
3.842568725540909,2.712273715542031,9.265778402395703,-1.3391068086660818,9.641591277267375
3.8625761707636364,2.4712392833483157,8.910838927494911,-0.31592791109117063,9.355484931280014
3.8825836159863636,3.6715076240748834,8.508457960308657,0.18692278305078605,9.160498854154671
3.902591061209091,3.5481784078890106,9.491991265285122,-0.6663295300658204,10.275676954660506
3.922598506431818,2.904994326194222,11.038417597235501,-1.5351651819010848,11.409698112341214
3.9426059516545453,1.9321010718178608,13.231994691588227,-0.37026185211196816,13.465979102733924
3.9626133968772725,2.075083362707948,12.164074668150409,-0.8012242977594268,12.274308491786984
3.9826208421,1.1858006157003411,9.760847721798799,-0.5856579852507483,9.946046329486338
4.002628287322728,1.5850425808653463,10.075070599709134,-0.6716243740867007,10.121492492905269
4.022635732545455,1.8104471915245968,9.891104638823819,-0.4823509348220259,10.178101930501995
4.0426431777681815,2.2226129750508954,10.267978660160928,-0.5509574520089872,10.405135343612685
4.062650622990909,2.3220024006928894,9.389730861837702,-0.3866879424211415,9.814088830806945
4.082658068213636,3.102765895368247,9.060801099848888,-0.7735129429608961,9.456205304466051
4.102665513436364,2.937658293142542,9.110610158156197,-0.6809932419550139,9.783310578476485
4.122672958659091,2.829367707577365,9.299442488821688,-0.1922362397442772,9.56328591650126
4.142680403881818,1.3010409701568528,9.753527799485967,-0.6961554741848435,10.008835657213064
4.162687849104546,3.9980713678097786,8.775025687710004,-0.5934641263377688,9.395399492003072
4.182695294327273,5.302469530865495,6.994784949155658,-0.5954865256086794,9.234576010141716
4.20270273955,3.755173741016946,6.295316830136761,-0.7173987526497702,6.9501201939834845
4.222710184772727,0.86526985967831,6.850892376877318,-1.018794138493676,7.35498363436189
4.242717629995455,2.990106256842168,5.724438291115608,-0.8085262160789692,5.593472457333821
4.262725075218182,-9.69349839397862,10.38315071294728,-1.4403359822081003,14.586666959994364
4.282732520440909,-0.2685245032105074,9.013719227698576,-0.47445298483400433,11.005874827556683
4.302739965663636,4.812252512243266,6.00866544619565,-0.07554686167812637,6.539459231843358
4.322747410886364,0.5916573306544186,7.229473089882693,-0.5923843989800108,7.564330697706779
4.3427548561090905,0.8772579925668631,6.889678660119175,-1.7975810476767027,6.981363603600408
4.362762301331818,0.9615136112844878,14.791608612750895,-2.7676273981423662,15.241117939458917
4.382769746554546,-0.40118293283872536,17.77676094312911,-3.1188988672689595,18.032214698876942
4.402777191777273,-9.185951154198394,14.339695288681916,-1.4427587610443973,16.866623172415377
4.422784637,-8.147584065048799,11.852013471132791,2.1317678105446287,14.771345721239015
4.442792082222727,-4.955512608011024,9.666281869701388,2.9619848994158158,11.058816925408014
4.462799527445455,-3.3540068218198047,9.092304717015354,-0.8971921788363508,9.92223309090806
4.482806972668182,-3.0163979517752524,9.211549208253807,-2.7511763322062204,9.965830362194417
4.502814417890909,-2.122141186880797,9.45869830674051,-0.5426775703400792,9.748216797144053
4.522821863113636,-2.360865212821911,9.788148732560115,-0.6258442104515032,10.05667162773838
4.542829308336364,-2.003879657109293,9.77057684736149,-0.7827576459552269,10.034815036039497
4.562836753559091,-2.3178795540226704,9.803372154218067,-0.8017622073797562,10.07292748693086
4.582844198781818,-2.0838799614061263,9.715751422205809,-1.2638152426335427,10.051722630628065
4.602851644004545,-2.744109419756853,9.464011124412401,-1.2162528867914737,9.895145073508743
4.622859089227273,-2.2555148199033366,9.35860776837292,-0.6830740850808049,9.67632295482664
4.64286653445,-2.441835714999188,9.612512737778852,-1.2533488204362275,9.967144543288896
4.662873979672727,-2.260097257867096,9.410448480036049,-1.12553921143789,9.773173061128029
4.682881424895455,-2.5971752631402465,9.465246883615537,-0.8556903086664637,9.82288308783808
4.702888870118182,-2.338679878824386,9.459839711315407,-0.9074254954479515,9.814639037883648
4.722896315340909,-2.3573638465118623,9.641196518109004,-1.201008717809455,9.970128324617933
4.742903760563636,-2.2991944217636275,9.512658940505935,-0.6791635633024231,9.835146213294635
4.762911205786364,-2.360909000584081,9.633942551959002,-0.8845309760219001,9.93675907463022
4.782918651009091,-2.159091050275353,9.537093425961224,-1.0233180200136776,9.855659525597357
4.802926096231818,-2.6766948558836825,9.702730638406686,-0.920182945985576,10.080181889400233
4.822933541454545,-2.413289155221454,9.492704617645062,-0.8756087535639706,9.860320770355834
4.842940986677273,-2.724480113375323,9.396783039875551,-0.6962492341809889,9.778451649000512
4.8629484319,-2.329252727704112,9.525447855878104,-1.106955846881483,9.899414718431599
4.882955877122727,-2.5299699606264445,9.706299362249517,-1.4786155533169276,10.12070458053166
4.902963322345455,-2.4351243867192305,9.346481585561634,-0.39055296599723144,9.679602951645261
4.922970767568182,-2.399992709000102,9.32205671618334,-0.8869812928183086,9.649066716242794
4.942978212790909,-2.5192497093961306,9.666419967922273,-0.8746868512561279,10.046849417605914
4.962985658013636,-2.643692136534168,9.64994551232398,-1.0772259371772699,10.04268342364198
4.982993103236364,-2.47267221231958,9.517342713775667,-0.861638830403528,9.890387628578488
5.003000548459091,-2.443035721781397,9.55344617380295,-0.7732478860049842,9.873605765427497
5.023007993681818,-2.2981650085637244,9.647878527696486,-0.7027362735964489,9.960012533626173
5.043015438904545,-2.388425925177308,9.67610426042706,-0.9575301933911808,9.993656112077776
5.063022884127273,-2.3095394872129513,9.465100254223312,-0.5652622984004088,9.77524483662957
5.08303032935,-2.3907478353591967,9.600762189110071,-0.8087200919173093,9.91223086569455
5.103037774572727,-2.040513800709348,9.488074685285484,-0.1365758069005131,9.71570748114171
5.123045219795454,-2.2064978130999817,9.449260723436838,-1.4047732313407537,9.810752818360314
5.143052665018182,-2.21655311695797,9.638980218269323,-1.4359782902017062,10.020213996007804
5.1630601102409095,-2.2801887783028314,9.436961321993882,-0.42494344159987585,9.689959529713123
5.183067555463636,-2.2211350650021955,9.565892639900847,-0.7397289925999673,9.869655052009476
5.203075000686364,-2.304891132591386,9.646772112226733,-0.71506806528306,9.924866211422902
5.223082445909091,-2.2117307724618374,9.552251681378998,-1.1704444643628271,9.890440303668377
5.2430898911318184,-2.322843740034017,9.579454645025818,-1.040800277628301,9.895281199448837
5.263097336354545,-2.2418999170804033,9.564169789751436,-1.079868140251634,9.899201326316613
5.283104781577273,-2.2712896427371816,9.479225167763568,-0.9747074848605882,9.779398499697393
5.3031122268,-2.223044524367526,9.451394583316937,-1.107995359832191,9.788732292159105
5.323119672022727,-2.3505193882356807,9.490246033201496,-0.9925597126167018,9.811146745171998
5.343127117245454,-2.256120330539815,9.593084847460373,-0.7569446007790331,9.899839093969579
5.363134562468182,-2.2058860029459035,9.614504093084108,-0.9062484849839847,9.889879262593645
5.383142007690909,-2.261701512822524,9.478319873732348,-0.867906336420374,9.79973245948486
5.403149452913636,-2.51839349008951,9.325289714013666,-0.8545103675296427,9.680469961071374
5.423156898136364,-2.463200268505453,9.598627550136023,-1.0900974656316236,9.985759863477615
5.443164343359091,-2.2254450808198594,9.610179153169875,-0.5844625546737678,9.8649785559065
5.4631717885818185,-2.1390342201285906,9.578277588167227,-0.3551962258631492,9.83803182943457
5.483179233804545,-2.1763229207025567,9.682609388191212,-0.42853952364954156,9.91604310000195
5.503186679027273,-2.2911023470475738,9.612398398944157,-0.812349022526933,9.932422713169704
5.52319412425,-2.288350555191943,9.475260171453948,-1.0509749918118125,9.792071118719162
5.5432015694727275,-2.111551849578235,9.499274962342406,-0.8945794564265502,9.786869551260246
5.563209014695454,-2.2298486861813105,9.670158299923195,-0.6957596267263756,9.933065853415124
5.583216459918182,-2.0928288267125996,9.703395036928708,-0.7785774867828122,9.971869416893504
5.603223905140909,-2.11751298602156,9.608873873178888,-0.8186276676748407,9.858618212966904
5.623231350363636,-2.049761055188155,9.513512803948263,-0.9230707520044011,9.790214879032632
5.643238795586363,-2.2095945553473264,9.538392406324464,-0.9422119806083543,9.821242350438094
5.663246240809091,-2.0943215410164013,9.552390644739665,-0.9543381258390606,9.840606921928059
5.683253686031819,-2.115778607506105,9.686823249689544,-0.9553594817131245,9.947274110341247
5.703261131254545,-2.161562836657904,9.577651435715008,-0.8232093872710087,9.867715723364062
5.723268576477273,-2.2207821817548106,9.419043068552881,-1.0220393961128398,9.716070420519092
5.7432760217,-2.216677041471478,9.424968826425804,-1.0843953118194347,9.757791538330226
5.7632834669227275,-2.3795700933629433,9.49563799566268,-1.0445269804415347,9.829613542984237
5.783290912145454,-2.3625321515098863,9.529279157561524,-0.8852484384364324,9.872708212597113
5.803298357368182,-2.3883392837527295,9.656655812462702,-0.7668653708885517,9.962190683896576
5.823305802590909,-2.2620873711494136,9.669992431516851,-0.7452810391671436,9.973787703666746
5.8433132478136365,-2.2228458843150425,9.64846230162335,-0.9178166916950249,9.928907873086722
5.863320693036363,-2.149067659625385,9.554076917234807,-1.0389921458342917,9.862487750865785
5.883328138259091,-2.1894612734485284,9.548822543283782,-1.166407531416726,9.851076138251242
5.903335583481818,-2.1511572151409077,9.532646087457138,-1.0697388853905467,9.845463972232544
5.923343028704545,-2.1860257383727655,9.605244377376065,-0.9376034969094066,9.880719202494538
5.943350473927273,-2.0588315691926797,9.623064614136647,-0.8927310443630729,9.895733793799582
5.96335791915,-2.1140553425608264,9.602453157244833,-0.993051732967937,9.868004424757293
5.983365364372728,-2.09848969059858,9.537313273236473,-1.1045579656044766,9.842126523230727
6.003372809595454,-2.1258433661126506,9.628752868246686,-1.065917520841428,9.903763685671496
6.023380254818182,-2.0602945819131806,9.62756415033632,-1.0162487631141568,9.912200300520707
6.043387700040909,-2.133684513630832,9.603499402115807,-1.0053130750488253,9.874454349317581
6.0633951452636365,-2.1069498790177725,9.554253339333469,-1.1226647476979403,9.862570199694062
6.083402590486363,-2.187236024808276,9.570757012053575,-1.2316763968161897,9.879918262502397
6.103410035709091,-2.169036531050319,9.554723916311024,-1.1545399082692793,9.880130928392129
6.123417480931818,-2.2893685126153844,9.590303460382575,-1.0884934125212014,9.905177095080552
6.1434249261545455,-2.3314097312437565,9.520364533990355,-1.1126655246953723,9.879339889183475
6.163432371377272,-2.4170160393693054,9.441377536278905,-1.1090021500636142,9.794051519808429
6.1834398166,-2.3783372965127376,9.356286670009135,-1.0642506190779757,9.727049717416568
6.203447261822728,-2.3443255801969536,9.422731713181909,-1.10823997975833,9.758406152826897
6.2234547070454544,-2.29116910503699,9.556841655212995,-1.037125875463753,9.896803347598658
6.243462152268182,-2.2910333565247782,9.6836010119965,-1.0591930355120154,9.992598553654743
6.263469597490909,-2.3309358468127757,9.531235965969334,-1.05004397148553,9.882855097117579
6.283477042713637,-2.40602883203145,9.39591905414917,-0.9786287979039616,9.733663934327131
6.303484487936363,-2.313403912851876,9.420869792479861,-0.9663962444961977,9.76338719339154
6.323491933159091,-2.3908770695715615,9.595879383150834,-0.9356947894874433,9.918821487073016
6.343499378381818,-2.4426342559899465,9.57906197999951,-0.9673375104306756,9.947453592904322
6.363506823604546,-2.484368734376989,9.526157622355871,-1.1093587237982503,9.892588536059133
6.383514268827272,-2.39949736542795,9.4514513377926,-1.2655933502481658,9.84750809031669
6.40352171405,-2.3035263502447205,9.488908592967485,-1.1888029776469993,9.822043227574598
6.423529159272727,-2.3045093119050506,9.533046669828765,-1.2124752154806195,9.897068488856869
6.4435366044954545,-2.3864303644274725,9.482176446415219,-1.0366110444847505,9.817806140588987
6.463544049718182,-2.228515612983518,9.537083422653067,-1.2296999795002619,9.886830073310023
6.483551494940909,-2.20656714352172,9.683804183660342,-1.5897833439565134,10.042093518874065
6.503558940163637,-2.298048110844681,9.57252814989834,-1.2983749899646027,9.945842259335958
6.5235663853863635,-2.350655951059734,9.52807333528938,-1.2133614328106306,9.873258198794803
6.543573830609091,-2.149920759902287,9.468235506461534,-1.4283582568851554,9.828431523400722
6.563581275831818,-2.149755005245142,9.482036069362865,-1.4654457312134899,9.817828922187882
6.583588721054546,-2.218123268876163,9.453604006664778,-1.49012926824348,9.83894220906109
6.603596166277272,-2.3453636906660527,9.48690835284154,-1.4625840476994696,9.86620964915007
6.6236036115,-2.240342801692252,9.489106702107675,-1.3827596223984022,9.862766603319997
6.643611056722727,-2.2324143869420783,9.578144751704343,-1.3836162703764376,9.91659049054918
6.663618501945455,-2.124867822197584,9.46119746958102,-1.4754014011201573,9.8235904260598
6.683625947168182,-2.1638267662696755,9.443141064248255,-1.58620455991472,9.801919978071957
6.703633392390909,-2.258001857684184,9.440554362849861,-1.5911208914445774,9.851409852080021
6.723640837613637,-2.279208043032539,9.547481166077104,-1.385124532877453,9.897902023726656
6.7436482828363635,-2.195367036378494,9.543409493123999,-1.2909495704563834,9.89272783236466
6.763655728059091,-2.1942843035009036,9.50555444003459,-1.4772583776927386,9.85130627195769
6.783663173281818,-2.1341006186651215,9.386775438947371,-1.5800656123428858,9.770695329603015
6.803670618504546,-2.0574931712598126,9.497723424879482,-1.4444521370629417,9.809141410956446
6.8236780637272725,-1.9876440450782453,9.66983541689537,-1.1526504469982535,9.95501379400701
6.84368550895,-2.039373670460519,9.67072292736292,-1.032716350132303,9.921094822529994
6.863692954172727,-1.8955358655151662,9.566917814842036,-1.192188536685466,9.841966672552676
6.883700399395455,-1.9001380187081394,9.568859210423968,-1.349384544685112,9.83193599739687
6.903707844618181,-1.8782821809309578,9.673869989111124,-1.183476581231432,9.942276955773252
6.923715289840909,-1.815175412475116,9.716365019869697,-1.1428684335076673,9.933522099707549
6.943722735063637,-1.6926438738193665,9.63510577801724,-1.3576073553689774,9.893128796127362
6.963730180286364,-1.519840387147572,9.674094680748786,-1.5351108997283602,9.896156694869562
6.983737625509091,-1.1884322133528828,9.584066593027298,-1.3997882707210538,9.775267778035344
7.003745070731818,-1.2522289276470973,9.636878686911285,-1.2501366965843541,9.781177097881683
7.023752515954546,-1.5804564023119283,9.444753897146397,-1.1610676900015275,9.66397146933289
7.0437599611772725,-1.7618664469604617,9.210327017811666,-1.2371907448254476,9.440420392806654
7.0637674064,-1.6781587223483116,9.479662940374334,-1.5288684881695374,9.76626186964709
7.083774851622727,-1.768032133213832,9.757130403137653,-1.6165030489887249,10.028757240626454
7.103782296845455,-1.8280498958993827,9.895236381507178,-1.2324798998834947,10.156036713526026
7.1237897420681815,-1.8835707376634394,9.901220712860749,-0.8222129933250262,10.093909925656073
7.143797187290909,-1.7280907255685465,9.750410431970796,-0.5172656099864757,9.935205676592902
7.163804632513636,-1.408217686904907,9.904324345910176,-0.6785315911480605,10.006655801611092
7.183812077736364,-1.5662155809890341,9.729677219827238,-0.5436510781448286,9.88995776723022
7.203819522959091,-1.551057152495524,9.679634304215053,-0.8187966854031767,9.818874722294078
7.223826968181818,-1.1217137156793668,9.592904258738574,-1.5711273488584918,9.803199594036242
7.243834413404546,-1.0716423712284262,9.204149832688158,-1.4981819409847492,9.368327507935112
7.263841858627273,-1.1533894642069875,8.965433014071822,-1.0198694492059046,9.116601148790489
7.28384930385,-1.2258535070195629,9.144724334581507,-0.597885786179684,9.224635684904129
7.303856749072727,-1.408159969913731,9.523491669328612,-0.3035672265633367,9.6544143785108
7.323864194295455,-1.340645801379819,9.674733995441242,-0.3358094707187369,9.749489898969385
7.343871639518182,-1.2218111699201957,9.447029201766588,-0.7870698765173476,9.58196536750826
7.363879084740909,-1.019421480222459,9.424139838617558,-0.926361406177325,9.500295669410159
7.383886529963636,-1.1946331184582015,9.480269084897381,-0.9382012381819986,9.625706439793426
7.403893975186364,-1.096664788435793,9.289759509314907,-0.9181090735084644,9.373665612483844
7.4239014204090905,-1.1479657596505084,9.352842247068201,-0.7082911636232525,9.476313776575749
7.443908865631818,-1.064815523598432,9.254143037000752,-0.5745950239730359,9.305073148416728
7.463916310854546,-1.17460111025818,9.26928581363332,-0.9173428255044865,9.416641088307609
7.483923756077273,-1.1271969206512171,9.080309132496629,-0.8145956090673147,9.156326677942015
7.5039312013,-1.339610291490294,9.228815200801352,-1.0949635410756764,9.421304693644814
7.523938646522727,-1.7070626559070514,9.57691377906895,-1.5431010816202888,9.817174523157485
7.543946091745455,-1.9429026431620822,9.76729640502665,-1.5557762099539283,10.113250980561839
7.563953536968182,-1.94428077712905,10.589970116411154,-1.4212737406052618,10.824137521950242
7.583960982190909,-1.8212851057151953,11.789411980361992,-0.725856369454331,11.990258037606823
7.603968427413636,-1.103432871847521,12.28424712598478,-1.0150764723040897,12.333679843658745
7.623975872636364,-0.9841327890310102,13.607456991460001,-2.5686554523511673,13.927127847528618
7.643983317859091,-1.1685685427712311,15.668711962640913,-3.9332042435593304,16.147546717709698
7.663990763081818,-0.8123926433748474,16.425192507634943,-4.01828462496944,16.989419928559553
7.683998208304545,-0.2519876480684435,15.155681783458093,-2.4711545544416054,15.286719163909934
7.704005653527273,-0.9276485551766087,12.506800221745054,-2.4062138548867917,12.85098354322601
7.72401309875,-0.5770511671198935,9.63502196497465,-3.7328621437965652,10.24230647921226
7.744020543972727,-1.896275382863312,7.355804641890228,-3.9242457183695723,8.678152414913054
7.764027989195455,-2.154070276378334,6.026692457840233,-1.2088060270814176,6.365776917675274
7.784035434418182,-5.608173094639361,6.030868931308076,0.6525137124429472,8.345070902406654
7.804042879640909,-8.845252351395718,7.2511286079796164,-0.001385948627449806,11.53612136377874
7.824050324863636,-2.641134325321971,7.868509291901487,-3.6254146435398495,8.871116386214595
7.844057770086364,-3.8829655545926993,8.961839649087338,-0.8045148560461699,9.966349579148195
7.864065215309091,-3.6420857534667777,10.463247926080564,1.6228836755955403,11.108620304672566
7.884072660531818,-3.3672382090405217,12.471560578832815,1.2004850263021944,13.034571416702466
7.904080105754545,-2.3011525423914723,11.150449214715023,0.2634680064214715,11.344889954405168
7.924087550977273,-2.2068031792958154,8.562502217098416,-0.11215822999371038,8.878726340811742
7.9440949962,-2.031308675985293,6.953037044191216,0.67766593115656,7.247734999958598
7.964102441422727,-2.2405049278795595,6.415643669354976,0.8294939439666901,6.867395885074491
7.984109886645455,-1.9517737555015404,6.0318770314184995,1.468314512364929,6.488238698076621
8.004117331868182,-2.0782954067486124,5.771976621571953,2.315352545370845,6.5736547022725516
8.02412477709091,-2.140816847339179,5.543568457679876,2.8958401755827468,6.59824514844765
8.044132222313637,-1.9561821929726466,5.691669853458056,3.4749715989312207,6.960635015029273
8.064139667536363,-1.4835689141902364,6.0810835540223405,3.7911301889888493,7.308602980769047
8.08414711275909,-1.5545687744756003,6.808339640149158,4.297197742084912,8.207688775256372
8.104154557981818,-1.1724453559200974,7.293344027101125,4.719115891229401,8.76284520879644
8.124162003204546,-0.7283586301506979,7.861191205419394,4.856314449071505,9.271815480387183
8.144169448427272,-1.186303736259379,8.756036108849923,4.86036121449938,10.081179435351546
8.16417689365,-1.7202584355924313,10.247758649875406,5.169164224465733,11.611040192154036
8.184184338872727,-2.346191524122914,11.31517715295618,5.3173985362720035,12.715955195114052
8.204191784095455,-2.3144081571057895,11.438342464924867,6.4197706520274505,13.320410251594852
8.224199229318183,-2.2143457850012362,11.231900317701884,7.1171968802679375,13.482399029229637
8.244206674540909,-0.7190087980942563,10.827569411795205,6.627946835088322,12.703627634167248
8.264214119763636,-0.456254232572727,9.293273589518398,5.190814721641893,10.688891706972333
8.284221564986364,-1.997203700512826,9.011112707618041,4.671603997950164,10.304520402459909
8.304229010209092,-2.9624187815282323,10.068993688902292,3.7734465772738193,11.18985525230296
8.324236455431818,-2.594099739304733,12.49768721048623,2.4028399754280003,12.959374155366278
8.344243900654545,-2.0686295724707855,14.528324171019985,-0.5299065382050818,14.728669833812157
8.364251345877273,-4.46932995805441,11.552023279666875,-2.2808727166042693,12.555037877486955
8.3842587911,-3.9007614500163936,7.343291798276116,-0.4834838171845348,8.360059080204536
8.404266236322727,-2.5033674837645905,6.83079961543083,-0.03149856418736906,7.265864850693559
8.424273681545454,-0.9249364249735018,8.023599991375221,-0.9084229070764478,8.130495030166024
8.444281126768182,-0.10385983061376987,9.335944089229912,-1.4643556982389294,9.447816131694955
8.46428857199091,-0.8671408785458247,10.363862355091605,-1.4711146322793347,10.516854694619596
8.484296017213637,-2.5389366261562962,10.768396626789873,-1.3726537687096312,11.12725955603341
8.504303462436363,-2.2674863570110357,9.905269480182064,-0.8613301233823845,10.22138071240466
8.52431090765909,-2.3688667100487537,8.659057064954162,-0.40730940401053434,8.95891794026591
8.544318352881819,-3.038684291105349,7.98108749786491,-1.1473298221599217,8.647103678919642
8.564325798104546,-3.042068689816477,7.6573305071416335,-1.909011476428149,8.433686427847718
8.584333243327272,-1.690418993170951,6.847486394447117,-2.1327555069466073,7.383832518158203
8.60434068855,-1.850459280612731,7.363598984025603,-2.6390329012725946,8.029742790736417
8.624348133772727,-1.421462787234184,8.348467156236099,-2.1456711676842013,8.74965702272255
8.644355578995455,-0.8223724407308269,8.867045660457176,-1.0691688974127995,8.955513980429
8.664363024218181,-0.6402449239488579,9.5796501567395,-0.6082614914585041,9.63561925977941
8.684370469440909,-0.32080608948068673,10.064523243461855,-0.1747890277722186,10.05535560826105
8.704377914663636,-0.3531907813789016,9.650883411729986,0.2512794010758553,9.678387185175728
8.724385359886364,-0.5663864660049333,8.918901179682331,0.04835198036995385,8.918478229833013
8.744392805109092,-1.1732482101598438,8.768283466531075,-0.42540696259034405,8.87506371014597
8.764400250331818,-1.3869107063200585,8.605991115572104,-0.9510551079670692,8.749869001588912
8.784407695554545,-1.843867088601879,8.558238850244923,-0.9942010588460443,8.829236409707628
8.804415140777273,-2.003089923504428,9.077854995949641,-0.7919705910614482,9.311436396617932
8.824422586,-2.1925016193239726,9.78552681405099,-0.7756318047773381,10.078848619308244
8.844430031222727,-2.7692000757293687,10.574667786879592,-1.0582068857751779,10.960179282430518
8.864437476445454,-3.2447680759898354,11.527587969800138,-1.4392418586084448,12.085804042558703
8.884444921668182,-3.5493129858690082,12.497699303560596,-1.6651136885686832,13.070947459929881
8.90445236689091,-2.9052445968073273,13.077495539566796,-1.0267413542703905,13.469213902297765
8.924459812113636,-2.249866263592029,13.399813723630544,-0.13518380428484386,13.549584552524644
8.944467257336363,-2.9415567922092962,14.742034544540795,-1.4380590942304707,15.139716365305263
8.964474702559091,-2.6356495017225416,15.949066304548278,-4.3356257023845,16.69532508431088
8.984482147781819,-2.057379521930544,15.934833471374587,-4.79811432246293,16.821128684901264
9.004489593004546,-0.6268838262176358,13.891090109352682,-2.0294200728160656,13.983547013356452
9.024497038227272,0.5173635468426961,11.203947613724575,0.3889297025311533,11.285192997424419
9.04450448345,-1.2429072264559142,8.982271692184462,-1.146116647702411,9.242041903545083
9.064511928672728,-6.650482540897866,7.931576337421757,-9.02873693538598,13.53553254902242
9.084519373895455,-4.060602835901743,6.090890322391677,-7.0447702599999875,10.36128256304944
9.104526819118181,-2.2627657687127933,4.740040024746064,-3.2642253102140786,6.000455223562915
9.124534264340909,-2.3510704516667458,4.453612222223687,-0.27280344345737506,5.224305025054416
9.144541709563637,-2.7937903504335693,7.823880709652157,2.210074979005606,8.470719245316811
9.164549154786364,-2.3487178790950094,11.360650729724822,3.81057713075127,12.30853203305232
9.18455660000909,-2.223120294656849,10.990094867472873,3.3275839174245156,11.660118740868237
9.204564045231818,-2.5135133749966707,8.665303925796314,0.5975938355249162,9.050180124500734
9.224571490454545,-2.3210397913401826,6.749921334768336,-1.3521069946637507,7.268015120865847
9.244578935677273,-2.8082125276192764,6.536981915092312,-0.3358975730297498,7.142244464665085
9.2645863809,-2.6189975428209955,6.656277166349176,1.5565862376534205,7.290968857881988
9.284593826122727,-2.4830212039876973,6.665333284557327,2.2037325981461944,7.474087612300608
9.304601271345454,-2.287391220503146,6.558470860477982,2.0477216323408602,7.220070410204607
9.324608716568182,-1.8077264165253593,6.551850827781113,2.5238223129921944,7.267528871720922
9.34461616179091,-1.130665218898268,6.749342294865658,3.5202619089856,7.686287115918666
9.364623607013636,-1.1921770248423018,7.503673769583737,4.784492186772362,8.97756297641684
9.384631052236363,-1.2998581360293795,8.162128133948062,4.437347711325406,9.389113748660963
9.404638497459091,-1.2268315003870156,8.339228805403529,4.028236782130613,9.332715064422668
9.424645942681819,-1.3452445516273657,9.074436459575463,4.374469862099099,10.179231371825972
9.444653387904545,-1.6011840716793588,10.378979479807786,4.868921423631982,11.556309960712861
9.464660833127272,-1.7445905942313227,10.523775852953994,5.794702944248468,12.16709279304996
9.48466827835,-1.4955668355104244,10.537719365679427,5.385259621754385,11.892638129331958
9.504675723572728,-1.8910194484859202,10.43965827752428,5.163402088762578,11.844369011986458
9.524683168795455,-2.383591124841229,9.996461656730354,5.630762779609881,11.663730146209167
9.544690614018181,-2.5298798576360784,9.191821229855826,6.028135851673444,11.353559789291678
9.564698059240909,-2.425886920326842,9.793062649076871,5.845677929903315,11.560742561052026
9.584705504463637,-3.2230808910327347,11.755572868154637,4.930325533281208,13.276058863936798
9.604712949686364,-2.5521632626860637,16.94392099860193,3.2370693219402624,17.25948130848235
9.62472039490909,-3.9696497060082536,17.35610546585802,-3.795701338839874,18.412679481914093
9.644727840131818,-3.4576158009199447,7.541709817006351,-5.199661957964237,9.647637197523105
9.664735285354546,-3.333604878547132,4.492413545493223,-0.9630717906596998,5.660691068155882
9.684742730577273,-2.517286256126515,6.387479894495294,-0.8637339904224273,6.985310296076864
9.7047501758,0.025408632807913025,6.642402515187126,0.8685359833054248,6.581928680331002
9.724757621022727,0.881260973609664,8.4065363994785,-0.15173961497205346,8.528720752686342
9.744765066245455,-0.6849952290926956,9.850742874438467,-0.9825111586812431,9.907227957776703
9.764772511468182,-2.1237964378099377,10.387506345750671,-1.686321131467591,10.744968651018743
9.78477995669091,-0.9445721218918166,9.825682008555363,-1.6210694446756693,9.98198541348616
9.804787401913636,-0.7211838975568212,8.577918837687266,-1.367689277983236,8.730688521191249
9.824794847136364,-1.2717025498927748,7.814519117247332,-1.807993269070526,8.134218544481918
9.844802292359091,-2.5804279376253376,8.384358841781085,-2.849851032267894,9.194123126550513
9.864809737581819,-1.6003100850477998,8.629496582161494,-3.7983380606571515,9.580726266545522
9.884817182804545,-1.5860386696712048,8.644198892892211,-3.751592912028574,9.559734198632633
9.904824628027272,-1.3187477746598357,8.848454878117169,-1.2616087970349947,9.005589257445855
9.92483207325,-1.0141661656786556,8.730290721986925,-0.36258751523990823,8.832309687243482
9.944839518472728,-0.30945652714242283,8.994916502158047,-0.43970018343884354,8.975310787873253
9.964846963695454,-0.4432657627199524,8.990641019844452,-0.5770107876799965,9.054549158928506
9.984854408918181,-0.6483296162229202,8.470241471176411,-0.22950849968367606,8.464895816199505
10.00486185414091,-0.923317486949177,8.503678250695064,-0.6048946265168456,8.602541899008148
10.024869299363637,-0.885550224567356,8.658713865433961,-0.48243722139019257,8.69117586708783
10.044876744586364,-1.4499417804292396,8.959910458202451,-0.007856475373172089,9.102449242804425
10.06488418980909,-2.2039756395494257,10.013959745119202,0.22075733280317633,10.233052993702511
10.084891635031818,-2.86060446327539,10.970836144183668,-0.764181012592494,11.379303981846864
10.104899080254546,-2.8293164123240366,11.958107287420429,-1.7656854564687496,12.403386981241514
10.124906525477273,-2.601385900826706,12.8276490470301,-1.8869172697021956,13.235527072347734
10.1449139707,-2.66441514221167,13.411421475991043,-1.1009931415201168,13.703624794434388
10.164921415922727,-2.3994041487868376,12.586064003095899,-0.10160149869637891,12.833057465730082
10.184928861145455,-2.38280251135329,12.153833661888493,0.4472024633460737,12.370754735232437
10.204936306368182,-2.840159206866151,13.450555858521886,-0.9124709831029438,13.800932699195192
10.224943751590908,-1.944806315391945,13.824065271433135,-2.7150261963239997,14.196465333181246
10.244951196813636,-1.4479190591485884,13.1139684838222,-2.7384633403341914,13.507039139125363
10.264958642036364,-0.6931087657256277,13.056659568242194,-2.3112268848920863,13.218997747270059
10.284966087259091,-3.2964719318340463,12.058811166033701,-3.272572244217522,13.005437229622203
10.304973532481819,-7.317930496842119,11.82542200454549,-7.709305503042694,15.866652496664072
10.324980977704545,-5.426556017083617,9.350910264911928,-9.390146666717676,14.322191212580517
10.344988422927273,-3.7171152925468145,6.396565921606314,-6.536023329528017,9.875058208665504
10.36499586815,-2.5490281552165497,4.905738485840529,-1.8574892398065748,5.89899949516466
10.385003313372728,-2.0395133996849544,6.570702037132606,1.8377506162296282,6.988102215738471
10.405010758595454,-1.3580961468736457,9.099155237575149,0.16517230127465524,9.330819775316968
10.425018203818182,-0.4490410780878298,9.34018507650776,-0.05130904910763341,9.262940084551913
10.44502564904091,-0.9424755216835577,8.27943607832774,2.9714028999011894,8.900421859510413
10.465033094263637,-2.1337788660245764,6.661274988835232,2.4354917973163586,7.396836250517471
10.485040539486363,-2.589319194105542,6.641313057785314,0.25771478601574044,7.124215066619863
10.50504798470909,-2.724726071900441,6.411124720832622,0.7762540712578053,7.00982828027973
10.525055429931818,-2.6947207522190544,6.070476838400093,1.4034147080163288,6.7977082455269375
10.545062875154546,-2.5615175546042757,6.033686031316976,1.940921204408665,6.8288227706497056
10.565070320377274,-1.81736420984182,6.407115677409057,2.128380568637665,6.99728584906482
10.5850777656,-2.0709263132047195,6.483083324788762,3.1655743985795066,7.494579980947197
10.605085210822727,-1.4315244647495025,7.145096597274261,4.7499761447084,8.712029659824111
10.625092656045455,0.020938972175475735,7.928758345389807,5.494956328261855,9.636468229031633
10.645100101268183,0.7966885803720428,8.901943633093733,5.281358735104417,10.389753970614638
10.665107546490908,-0.35249738008695736,9.990082796188487,5.0274269254821515,11.17986183123884
10.685114991713636,-0.8619437532053595,10.862986124660848,5.371395452412243,12.162431103463438
10.705122436936364,-0.08702808936666612,10.769655349416329,5.544987721601295,12.099813361074329
10.725129882159091,-0.26096183026047853,10.432624212152701,5.592271477551977,11.855766033698703
10.745137327381817,-0.8080013414432454,10.77705699772693,5.319319385533583,12.02761728912819
10.765144772604545,-0.3614705835607926,10.674798025842877,5.4442865649954495,12.012230313963286
10.785152217827273,-0.5961924811316269,8.79732005427517,5.965235646751038,10.623857876441523
10.80515966305,-1.2374469126279475,8.591046661176492,5.675142293343506,10.387992332568471
10.825167108272728,-2.5176883731453548,10.058786413663972,5.246987429939275,11.608568539871241
10.845174553495454,-2.72449005090158,11.706900697054524,3.5919874113395913,12.561114244699283
10.865181998718182,-2.1612475554091777,14.962105961734748,0.9752307859406235,15.14433970099979
10.88518944394091,-4.040836636260488,14.750699746912504,-3.549867309079863,15.683246963802258
10.905196889163637,-4.045411154375529,9.58739893567062,-2.358013880770578,10.69455020851229
10.925204334386363,-1.3800075983051099,6.467356813689704,-1.218411272847099,6.718595847556588
10.94521177960909,-0.25490152540507194,6.597677991636682,-1.065027253834416,6.716241631846628
10.965219224831818,-0.6871018945199436,7.677765368821523,0.14888055388927474,7.667519212925317
10.985226670054546,-0.1243787598306475,9.177328881511738,0.2942024893640191,9.22099352591995
11.005234115277272,-0.593347213608631,9.61645886296807,0.19257479382239587,9.601753158660179
11.0252415605,-1.2463922501810112,9.477326943388938,-0.771017689010158,9.62761412136038
11.045249005722727,-1.7010782065575527,9.128155687675454,-1.8242216882220654,9.429070672436685
11.065256450945455,-2.2969877199342883,7.973052081225472,-2.550216805721091,8.710957173640923
11.085263896168183,-2.35523130791724,7.590645571222442,-3.0347766813286525,8.485524749776987
11.105271341390909,-1.8175125516397372,7.649141106184914,-2.970924004833454,8.425068418583463
11.125278786613636,-2.276739348011998,8.623156292834413,-3.3988774100360426,9.526571076672232
11.145286231836364,-1.646494039382332,9.215680187910596,-1.9725387279450222,9.581860649676566
11.165293677059092,-0.9484997268854006,9.510107845911598,-0.7184381117389053,9.573064205472306
11.185301122281817,-0.6255264669720291,9.906102728761866,-0.33312620784312474,9.941875293602159
11.205308567504545,-0.22006766532247396,9.961660141962208,-0.3111583948515453,9.95849776422706
11.225316012727273,0.19020476064632372,9.376013209864492,-0.2728627488169796,9.392671605641565
11.24532345795,-0.16197429180572218,8.865920627087677,-0.6640568940186702,8.881944737762483
11.265330903172726,-0.9946839867437358,9.023672817770986,-1.3720870084940904,9.191181449167571
11.285338348395454,-1.552144759054413,9.050474569503496,-1.463288517669429,9.288991045466764
11.305345793618182,-1.958652791020585,9.24781798981896,-0.7259750334230772,9.490553606377441
11.32535323884091,-2.3876608461959155,9.924663477485757,-0.2278474354202306,10.200891725463578
11.345360684063637,-3.0675410166331427,10.633463407929606,-0.638368303754613,11.093157291477986
11.365368129286363,-3.072841203425293,11.57201997467037,-0.9780208072648835,12.004664384028462
11.38537557450909,-3.57444216970605,12.083931411219696,-1.0211980298730592,12.650130827162828
11.405383019731818,-3.125353911692808,11.73117407155534,-0.6196129562607775,12.149901503741686
11.425390464954546,-1.9691940651169264,11.733870171222254,-0.37805791017683393,11.916357759150385
11.445397910177272,-1.4823759019957135,13.846017043071273,-1.0189957620799082,13.945369172910082
11.4654053554,-1.5145001320036047,14.996160551908774,-3.212356137015792,15.427284301066695
11.485412800622727,-0.7357871276844911,14.54725796391523,-3.290287051478548,14.910845152191682
11.505420245845455,-0.10316630645732616,13.665168005421426,-1.8428607533187271,13.849736972195108
11.525427691068181,0.06856243752985951,11.170160299418903,-0.028105341836886767,10.998061286741747
11.545435136290909,-3.625643015954134,10.134719469020702,-3.7029100395933567,11.630369500317517
11.565442581513636,-7.21936553750866,11.24904763769244,-11.465700817997357,17.518392321331312
11.585450026736364,-4.200953477962584,8.90034354060328,-8.486571817520772,13.023225205396242
11.605457471959092,-2.9897739077695187,6.3555277732219295,-2.780918114878917,7.552334997935888
11.625464917181818,-1.3454192626032888,4.655626922118614,-0.016533164617723414,4.83990935911953
11.645472362404545,-2.341031671846635,7.098798587539698,0.15657316432171695,7.508159774563733
11.665479807627273,-1.8935586216828832,9.041838354869464,-1.07416126212899,9.282730974268246
11.68548725285,-2.701101310195048,9.06088980280184,0.26469329182133483,9.493619481109512
11.705494698072727,-2.095729125171108,9.006121581976812,2.949016500716775,9.656947803293473
11.725502143295454,-2.00408267920504,7.090524398652096,3.681501073972158,8.28425998262214
11.745509588518182,-2.565799292982383,6.337423757861478,2.7174540144236783,7.33540212239241
11.76551703374091,-2.3764039344707224,6.437053042301567,1.115998537948559,6.957499281164179
11.785524478963636,-1.7000567412482273,6.481263019836734,1.1244363971896671,6.7833774985171855
11.805531924186363,-2.1867853657675878,7.170961340115252,1.2794388992900805,7.615177245893038
11.825539369409091,-1.997836663841933,7.524678176236648,2.400064427446128,8.131866395306456
11.845546814631819,-1.5732690493903805,7.618127799050848,3.831975301292136,8.697455480945766
11.865554259854546,-1.343933004775967,7.92224049395195,4.208930895135067,9.045503796922887
11.885561705077272,-1.7814994261190666,8.437462216846862,3.8546135381762316,9.46696142213888
11.9055691503,-2.162315027824722,8.677910803421543,3.8974094967704076,9.739294409117734
11.925576595522728,-2.5001214908867686,9.214912476744036,3.712889180549164,10.254901674145769
11.945584040745455,-1.8023781831824124,9.20690422206097,5.166074138552055,10.686208700960506
11.965591485968181,-1.3534391882269505,9.103102017300818,5.362659106054277,10.691844525035245
11.985598931190909,-1.286074744585683,9.674601897304857,4.401807693760399,10.666484431127582
12.005606376413636,-1.2043471167778006,10.324636138284193,4.781835919532719,11.485061930408438
12.025613821636364,-1.217873197518452,10.586639202185157,5.235230282463964,11.825062805236524
12.04562126685909,-2.2715404043964287,10.373484102268204,5.029727499514892,11.805973040797879
12.065628712081818,-3.3180509732732584,9.489727933383879,5.704524519424589,11.492196949933993
12.085636157304545,-3.2570806307082734,10.62969884380383,5.71971814282337,12.570393149865895
12.105643602527273,-3.0088530765565986,11.788787071608397,4.418106679400287,12.88548745183727
12.12565104775,-2.1670675951373064,14.261472957684145,2.226469614805588,14.633401507138554
12.145658492972727,-3.3122596839025222,14.525803839743173,-1.0610057971440567,14.927559142378149
12.165665938195454,-3.6345286523175506,9.619120261715342,-4.001977684983127,11.008388903336483
12.185673383418182,-1.9489192243859024,6.757004190099401,-2.1007363471890836,7.429195275777459
12.20568082864091,-1.548018540646246,6.679290540849748,0.3179068393530788,6.780417357920509
12.225688273863636,0.14918148534583608,7.170426046409944,0.5109240626239859,7.245557962778141
12.245695719086363,1.9089993413344775,8.661737878142093,0.4141863290307381,8.841373385292448
12.265703164309091,0.8440553003169315,10.061188545710198,0.4689540836702655,10.14147887392826
12.285710609531819,-1.3867646609964772,10.621815326179714,0.4477501445358683,10.690179235337592
12.305718054754545,-2.952779095983898,9.909442036226741,-0.3518538695421886,10.373240232138045
12.325725499977272,-3.2320180087247388,9.342193089151744,-1.0677010527474957,9.922225451297141
12.3457329452,-2.444788960156557,8.150685764423162,-1.3938613319310955,8.639330194658996
12.365740390422728,-1.7926225936657039,7.244070312743045,-1.872715896753409,7.684039241837818
12.385747835645455,-0.624444748733959,6.788470728904965,-1.9331711178065027,7.09450382017565
12.405755280868181,-1.2013350730089134,7.699447603453771,-1.2800545560745753,7.888183253767547
12.425762726090909,-1.1094693556154696,8.824629360064197,-1.1323614957281662,8.974411478129463
12.445770171313637,-0.4541465103338565,8.993789931830504,-1.2514879572041675,9.086123302694027
12.465777616536364,-0.1961115215634322,8.607320328929598,-1.3117494276900101,8.714973434431297
12.48578506175909,-0.7381344946722359,8.737897515501823,-2.262162448293594,9.049329588789163
12.505792506981818,-0.973566250278299,8.765822367200478,-2.995547555597875,9.325103670807211
12.525799952204546,-0.9135983485652298,8.444671274828965,-2.0210335112241875,8.717822282324851
12.545807397427273,-0.7025818406077186,8.81289705785291,-1.6931787587528817,9.01573388633456
12.56581484265,-1.1315847076405088,9.752052756324582,-1.8589094663792458,9.976389501352445
12.585822287872727,-1.520637397701872,10.543660800683703,-2.2480035718893876,10.905089520836462
12.605829733095455,-1.4346267697798059,10.835138800133441,-2.922151937402756,11.29536392219572
12.625837178318182,-1.2265375637074414,11.688968938447337,-3.3264077519189863,12.232927044289392
12.64584462354091,-1.3799033934499836,12.713453527515304,-3.2834704658436142,13.18456133230107
12.665852068763636,-1.6455192609720104,13.054437594597273,-3.0030139329432988,13.514875269306435
12.685859513986363,-1.163559122386752,12.495464578627905,-2.195509956058439,12.724327343845825
12.705866959209091,-0.3854567025643012,11.64964272902566,-1.5622494402415577,11.773907099907458
12.725874404431819,-0.854804370072636,12.718190782315183,-2.3476783968314936,12.944460180467383
12.745881849654545,-1.6167301626879014,13.517159664221094,-2.6289802753637503,13.88454818874079
12.765889294877272,-1.1042135208568478,13.85051527595278,-2.3510283061310737,14.07653773980556
12.7858967401,0.160187874386568,13.129296985093415,-2.3608540546673304,13.348766491310071
12.805904185322728,-1.05059220617555,11.809548812926433,-4.157561894853023,12.553654055178562
12.825911630545454,-3.6851909277592054,10.186748237079769,-6.718732354963252,12.779935507131606
12.845919075768181,-5.835536889328404,9.837074841147873,-7.95159679100973,13.881458703619336
12.865926520990909,-5.728796413193669,8.339005685139679,-8.442569900588285,13.231599171611993
12.885933966213637,-3.500329884553662,6.006713562457659,-4.585276592606538,8.278836413798519
12.905941411436364,-1.5351332482470719,4.393508089638163,0.6281168607809009,4.692775168904587
12.92594885665909,-1.9881715112122502,6.017021734816626,1.2945043084476764,6.530441808285929
12.945956301881818,-1.4730690676130407,9.544112362311994,-0.17368421239422746,9.639956121814595
12.965963747104546,-0.5752690533666752,8.992681289189598,-0.01574067142343809,9.03118832772382
12.985971192327273,-1.4177395940312647,8.566288860545232,0.7414947330020165,8.694465335809312
13.00597863755,-1.7151817561823686,7.710144873873438,0.3606461031405449,7.930911329610004
13.025986082772727,-3.0272822333027354,7.396561681736448,-0.04380933428601026,7.965983502526988
13.045993527995455,-3.3133990839981924,7.095592030888685,0.866780581160747,7.900538026806063
13.066000973218182,-2.7724949151854013,7.494235611480503,1.650469164333536,8.147242330058589
13.08600841844091,-2.3649248702158223,7.557417450415175,2.0520855829829716,8.187615480739971
13.106015863663636,-2.223947047592497,8.169326267379876,2.4179892281524515,8.802451147277381
13.126023308886364,-1.7795983884651259,8.709312197130004,3.292917898648049,9.477582763600038
13.146030754109091,-1.1881747163280216,8.52930381804866,4.719213082796374,9.831979073378339
13.166038199331819,-0.3944078854094571,7.772978670255733,5.45778985218258,9.479563453652007
13.186045644554545,-0.8204956956115811,7.8068180124787885,4.292531899887885,8.984980835780673
13.206053089777273,-1.7055834955237223,8.863854024115223,3.6753451779352777,9.714611813232686
13.226060535,-1.3868851777358462,9.224212805150316,3.9880354814458974,10.170503904569754
13.246067980222728,-1.1896870959193688,9.403488707413349,4.239700126287574,10.358261345033442
13.266075425445454,-1.0873814528603205,10.088046906836253,4.8517841409820095,11.274570734233004
13.286082870668181,-1.3833742708721475,10.680136730241905,5.2973257335135555,11.96989169080162
13.30609031589091,-1.9112434289129707,10.564760484732776,6.055841442144096,12.364693390013564
13.326097761113637,-2.021953407186328,9.23517873098607,5.7124265541937875,11.002329897118498
13.346105206336365,-2.365694749511599,9.430768246878367,5.349038749660889,11.150361474950053
13.36611265155909,-2.945158902120794,11.121618071008093,6.436981062600972,13.115088973811188
13.386120096781818,-2.3573492816954102,13.478504030037833,4.0717147100133,14.350723700411912
13.406127542004546,-1.7495675741356265,14.246493962044786,-0.34725835271434713,14.294325534572748
13.426134987227273,-3.6121798318683966,11.006587603025338,-4.7241722945098354,12.52754546389003
13.44614243245,-2.9175126117804466,7.594412816599048,-2.6286445908959526,8.622746947351002
13.466149877672727,-2.000409273892582,7.076662391269413,1.4842569528722278,7.383041875737617
13.486157322895455,-1.3591602108485523,7.825643043113005,1.2842780028998015,8.146154925487675
13.506164768118182,0.8405611229979173,8.74985715243523,-0.738963943837853,8.718615213190198
13.526172213340908,0.972493844679128,9.656847776574985,-0.36337056325399664,9.810655707761951
13.546179658563636,0.7022685187359079,10.00286428090497,-0.1416924214822901,9.943720293463926
13.566187103786364,-1.161448298414508,9.329555075710381,-1.2524358969237188,9.564326804419819
13.586194549009091,-2.872619157372806,8.839724308845899,-2.1089312635193607,9.468282456058386
13.606201994231819,-1.8762738890810515,8.028459409570655,-2.179861309932081,8.575080480477375
13.626209439454545,-1.4307076309936317,6.896220540892445,-2.381637887524219,7.403556411814747
13.646216884677273,-1.6171835208964782,7.3479476560839325,-4.697750241719699,8.903883898886576
13.6662243299,-0.6928005376133087,8.168697148309544,-4.884657141808254,9.501305356447226
13.686231775122728,-0.8304463736723832,9.025528980319834,-2.488233239942063,9.440930618732962
13.706239220345454,-1.2932934422963844,9.535854533483528,-0.8511169308446489,9.632616680665505
13.726246665568182,-0.5795010213079894,9.618074052656654,-0.8537116076992092,9.693834710457205
13.74625411079091,-0.11776179814520213,9.433430943652773,-1.14485957000853,9.487571085844484
13.766261556013637,-0.3210439923763064,9.395251475052785,-1.5994708708231702,9.548221425425018
13.786269001236363,-0.595367729497951,9.29555770689169,-0.9177639534140676,9.34887531588016
13.80627644645909,-0.5809027657829205,9.065321610028024,-0.292151053594617,9.09783964036912
13.826283891681818,-0.92262020418499,9.085001715626035,-1.0076865080262765,9.180689291593024
13.846291336904546,-1.447148120581616,9.709752763359203,-1.7928011429709194,9.986685801184661
13.866298782127274,-1.5232590329910383,10.686926909948868,-1.777291234165396,10.931925311245932
13.88630622735,-2.082426932240026,11.523014225881452,-2.166689293674331,11.915753852183386
13.906313672572727,-2.146689235846091,12.593785151699233,-2.529849858326798,13.01940773972582
13.926321117795455,-1.935131868120274,13.07354112070315,-3.342052306316783,13.631640709638418
13.946328563018183,-2.0323415309966966,12.532550627897448,-2.4971511659360677,12.941547385733003
13.966336008240908,-1.5101923566018587,11.569196888895744,-1.6890866273664225,11.787780322950912
13.986343453463636,-1.752899214684728,12.204773473546869,-2.5595435534981186,12.593466408577184
14.006350898686364,-1.4833348038791152,13.07678676689725,-4.18368566022842,13.803145299420644
14.026358343909092,-0.665377400895839,14.033216459441231,-3.5984455046382346,14.528105279538613
14.046365789131817,-0.07835713046334841,12.277629169307662,-2.081723691835525,12.41232528097497
14.066373234354545,-1.3275337602791268,10.15247959410831,-4.046898205683757,11.052130260818494
14.086380679577273,-4.070907924031083,9.99653860928657,-6.174570538197522,12.406383146982137
14.1063881248,-5.368364632158812,9.31662551280321,-7.10110618367242,12.904228715910318
14.126395570022728,-5.139098350972205,8.499565406157584,-5.096717500246897,11.150211883836283
14.146403015245454,-3.4660212008548097,7.225926972241357,-1.0411993774295367,8.097138051962512
14.166410460468182,-3.287728137904919,7.977582661385444,0.8564893762279663,8.651626762044899
14.18641790569091,-0.33271687868251687,7.821648006460254,0.28163435397596703,7.81730950312141
14.206425350913637,-0.7413685377509799,9.046882101469546,0.6943058422205992,9.175077150068567
14.226432796136363,-1.2676254944459175,9.047011705928862,2.5043484253875654,9.416152320824837
14.24644024135909,-0.6055034814130983,6.7141619108824315,2.1125808319306,7.111160049304723
14.266447686581818,-1.7768299625876838,5.584509437543704,1.1672955588398122,5.923892070435775
14.286455131804546,-2.233030791311088,5.929727333521508,0.5707594928563078,6.409794396978605
14.306462577027272,-2.955077336835623,6.384776901513532,0.9935810131409468,7.061082735321581
14.32647002225,-3.5714047006815988,6.843926926044147,1.9663835283547855,8.011814077531112
14.346477467472727,-3.535950740778514,7.128009635234522,3.1013216970344075,8.49265060928812
14.366484912695455,-2.380716037810777,7.06084423447029,3.8816105482402703,8.450914474187945
14.386492357918183,-1.6005883198887145,7.390447272123835,4.600223393100718,8.805486691179215
14.406499803140909,-1.735068440280574,8.145165098632436,4.81000949653412,9.658666069360082
14.426507248363636,-1.5055544761260142,8.645671797006669,4.327959764878638,9.74557799281079
14.446514693586364,-2.0078645717767163,9.088833278329773,4.556408756279467,10.40136154553045
14.466522138809092,-2.2733507596969766,8.918467925446578,4.285441676210981,10.118482493898423
14.486529584031818,-2.597599314403835,9.616498250416265,4.437373020208841,10.93936051751535
14.506537029254545,-2.3246998903060088,10.483440645234124,5.743501123201538,12.138755551755393
14.526544474477273,-1.7270856781601875,10.952638784681628,5.507655176783006,12.419098920268453
14.5465519197,-2.102473596172098,10.914874793510442,5.636454841422736,12.42867599084053
14.566559364922727,-2.465287178921154,9.975242213871951,5.992083362615966,11.927201593451764
14.586566810145454,-2.606986066002117,8.564573729050004,4.593177693861924,10.031523829896745
14.606574255368182,-3.417575266923715,9.204388404681417,4.866393586965642,10.991301129512923
14.62658170059091,-3.5764558707141183,10.647991079220505,4.990614890602399,12.260990098623273
14.646589145813637,-3.1112398245646595,12.558198571744377,3.1908575415372704,13.35352869735508
14.666596591036363,-2.2342204596452953,14.25866051637872,1.0320834485578123,14.435544659808606
14.68660403625909,-2.5169788822808417,10.847784424416012,-2.349693346473684,11.413976816105066
14.706611481481819,-2.2627418721576955,7.047036932284962,-2.3003508083493376,7.734308665599442
14.726618926704546,-1.2064590412642502,6.509105662641036,-0.0659289265265562,6.644954558701852
14.746626371927272,-0.9940261391432702,7.518618609075515,1.5113871594010129,7.705739246904411
14.76663381715,0.5652911356895072,9.21802697247959,-0.434143227279358,9.243928734867763
14.786641262372727,0.5070865995826798,9.772552699906619,-0.8167293529651961,9.847967936363629
14.806648707595455,-1.8499405340093007,10.391291819984417,0.3753320841010953,10.53064580148994
14.826656152818181,-4.133617188090207,10.600155306564352,-1.595627464965305,11.510314665914374
14.846663598040909,-2.57570080003031,9.065706143006734,-3.5046304616050787,10.041090989438297
14.866671043263636,-1.1314700834570341,8.01426484802938,-3.8757680306650526,8.988917568807684
14.886678488486364,-1.079294454312963,7.956901828522381,-4.214890419924839,9.056341046814888
14.906685933709092,-0.5151712796818136,7.836762509138083,-3.8489538754685104,8.75586089903101
14.926693378931818,0.28193519550435026,7.774069960596315,-2.8279218984259864,8.27490400341927
14.946700824154545,-0.7352696509213967,8.68976869691873,-1.411734357556153,8.832740522866418
14.966708269377273,-1.2674714722281895,9.175651796714703,-1.370238071979176,9.369612310226437
14.9867157146,-0.2739300878541366,9.168002867840004,-1.2911261722564948,9.249591579919704
15.006723159822727,-0.2570907850724464,8.573462057905038,-1.3631439840505084,8.697711421938973
15.026730605045454,-0.6313989334532657,8.416909641273971,-1.0037550403869078,8.488501077417991
15.046738050268182,-0.9855095084913766,8.925462028015446,-1.0149898529584274,9.047522345474091
15.06674549549091,-0.5020441351750583,8.693287037123596,-1.1835793352512265,8.775748812126777
15.086752940713636,-0.39071468368146506,8.654154251622899,-1.4500220118787042,8.799083002664759
15.106760385936363,-0.8342953163714923,9.490352222047754,-1.26305906464944,9.590868554238316
15.126767831159091,-1.9572277526857798,10.663267507994497,-2.0097660147590135,11.0451313446462
15.146775276381819,-2.02995012366222,11.583988101879203,-3.379097288069515,12.224489619809676
15.166782721604546,-0.8966627957947473,12.318685006842417,-3.282654159666484,12.791734924982201
15.186790166827272,-1.3037624885606207,12.598822997225149,-2.535243804020866,12.901219208873988
15.20679761205,-2.18654275291222,12.474092419667015,-2.3534787962327983,12.900592272192403
15.226805057272728,-1.6901431545213426,12.220943710272682,-2.9544408965427413,12.667276974314511
15.246812502495455,-1.0407702351273016,14.056572374219082,-4.464071142832427,14.807661015281006
15.266819947718181,-0.7876171729386304,14.987172157805938,-3.8215100949171728,15.449709735716715
15.286827392940909,-0.014437506160144647,13.658659366126233,-2.169566799062803,13.898844580346088
15.306834838163637,0.5264832507740106,11.373129094342476,-1.793025248124698,11.428855237062754
15.326842283386364,-3.178521352604324,9.836474525551495,-4.538421946824034,11.337609957742156
15.34684972860909,-3.8210980396043634,8.628618541838321,-6.218612766846833,11.302138998687125
15.366857173831818,-3.179130754536645,8.261640205733881,-6.9231199745711915,11.240659752030421
15.386864619054545,-3.7248280878349047,7.522206216245417,-7.281289861292153,11.098664580045348
15.406872064277273,-2.780882936001702,7.1638553230407895,-3.4553505857124662,8.42966565663585
15.4268795095,-2.681693783091157,6.48246986650075,-0.1842141732524185,7.033015600228748
15.446886954722727,-2.8221296853183686,7.563500042795109,0.011073663860324368,8.062128467034597
15.466894399945454,-2.6399034621923114,10.04605166265965,-1.4043484156806314,10.497423182849413
15.486901845168182,-1.7555278150213807,9.409989771333564,-1.2353900807642508,9.639396517591583
15.50690929039091,-2.46179590879243,8.668196680262781,-1.0857087273984571,9.080101259537228
15.526916735613636,-2.8104983858893573,7.878751255511761,-0.17694638915289695,8.374593513494148
15.546924180836363,-2.999039151564709,7.483264287809892,0.7734878639081693,8.090821945753488
15.566931626059091,-2.254032240634611,7.701341685221767,1.8676482177900597,8.24502587413019
15.586939071281819,-1.5766154998381303,7.624768306119419,3.176529599811682,8.409076901164118
15.606946516504545,-0.8057290182370286,7.065693090235728,3.5424707845734527,7.940435166632151
15.626953961727272,-1.036247551002972,6.9480378668799565,3.0999154926652412,7.685685042524132
15.64696140695,-1.3029661659226688,7.070970378655025,2.7056570800257136,7.676506163128077
15.666968852172728,-1.4438429520491887,7.071239722136373,3.1092722472879295,7.862046126792613
15.686976297395455,-1.6211489864482367,6.971852560119567,3.8389402179978807,8.123148529577033
15.706983742618181,-1.8112700847512893,7.042649118249036,4.598799397182038,8.602895583697268
15.726991187840909,-1.534570593844627,7.6151070786368535,4.124048423309825,8.789058596306143
15.746998633063637,-2.2232772952182853,9.041214221243262,4.196457608328024,10.2237119716251
15.767006078286364,-2.5042006930326894,10.568580146933622,4.936587325699117,11.919989043763634
15.78701352350909,-1.7793766727110032,11.52902670589076,5.434219884391446,12.882512368372907
15.807020968731818,-1.1845457250564198,11.341997973501103,5.2895703135881105,12.555056786434356
15.827028413954546,-1.614506448412252,11.52794315090309,6.199115044389816,13.199093905504395
15.847035859177273,-1.8734304672140345,10.935361836549617,5.118484081409682,12.210512039397816
15.8670433044,-2.65112014042008,10.322091181913748,4.121364386330207,11.446794449204614
15.887050749622727,-3.2552065510882606,11.188354350155063,5.183455695332794,12.728408075791139
15.907058194845455,-2.900305686484858,13.516616374660991,5.109065818114767,14.768076121206704
15.927065640068182,-1.53348329621868,13.843374477328442,1.9727631972563429,14.036178584809841
15.94707308529091,-3.789113355173634,10.396097240681497,-2.7545047379224696,11.4173094756922
15.967080530513636,-3.230257863010309,7.280120324601799,-2.4971778823917443,8.371807975384247
15.987087975736364,-1.3670792922306216,6.247065698264584,-0.10331160777860425,6.359350258796037
16.007095420959093,-1.1170140887113968,6.355191759441757,0.47890089063240837,6.500396989130116
16.02710286618182,0.3735099092021255,7.630722877410548,-1.101185754790093,7.671068641267697
16.04711031140455,1.3673306306411535,8.90489585923657,-0.8780200875026093,9.113657615761095
16.067117756627276,0.46014811617052964,9.253843877089535,0.3144569316480016,9.208873297143324
16.08712520185,-2.1531244706360364,9.851749294472262,-0.6965914282370328,10.159587228299944
16.107132647072728,-3.3344733322592193,9.776207833284822,-2.7799605612678353,10.661273393191083
16.127140092295456,-2.156951098362476,8.99244059098486,-4.4628372853160645,10.297101989325403
16.147147537518183,-1.2243984745437753,8.278152584806495,-6.265538692764384,10.416858751451658
16.16715498274091,-0.9778062078356298,8.262935779238624,-4.716581620020636,9.61953884316711
16.18716242796364,-1.2109584446723634,8.767666502770687,-1.6935813047416892,8.953431339783066
16.207169873186366,-1.063203720244315,9.023558901591406,-0.7410338992860803,9.163679600301833
16.227177318409094,-0.6421909911896316,8.698678009652049,-0.9981068510937545,8.745304764474222
16.24718476363182,-0.18974334558593972,8.750994907640068,-1.336072127408598,8.880796010766083
16.267192208854546,-0.10414454198423265,9.190784248909603,-0.6535986515475356,9.188159792440123
16.287199654077273,-0.4792325816783347,9.106853474662415,-0.7432337417644239,9.178843338571232
16.3072070993,-0.7310289391345494,9.050577972648513,-1.3861561290138753,9.158243654786869
16.32721454452273,-0.4341397026553983,8.796056340149184,-1.8221656675641542,9.01665588912718
16.347221989745456,-0.5267340315556638,9.017853972262806,-1.88585758304804,9.206153707848973
16.367229434968184,-0.7877587613597922,9.303402211177843,-1.9045297118671571,9.551531791671893
16.387236880190912,-1.3819399888373185,10.203604788921975,-1.8874153585198303,10.443237018954418
16.40724432541364,-2.1718971567114544,11.224574031496232,-2.6006231814267395,11.751832831709084
16.427251770636367,-2.501860012577965,12.286296176776021,-3.2292668165293175,12.92406167300402
16.44725921585909,-1.8229182132102495,12.48774312107687,-2.832051027638292,12.952603108156
16.46726666108182,-2.2517670870509945,12.540037696849085,-2.583676802270063,12.978526712073258
16.487274106304547,-1.9710772353268418,11.907555982661533,-1.7410357721674337,12.21902197051432
16.507281551527274,-1.8201589628999686,11.384819165223265,-1.2670156093325327,11.575233294156329
16.527288996750002,-1.302564257059825,11.632640726451628,-1.5701732574309397,11.833455964448612
16.54729644197273,0.06253862808387702,11.451556055519342,-1.4912041415905617,11.532454706180388
16.567303887195457,0.3672034974963683,12.493899599939375,-1.8879388989062222,12.655010751984955
16.587311332418185,-0.6391038648965084,13.415643534556793,-2.718375060624547,13.683327471579966
16.60731877764091,-0.09784780180176454,12.78123056697337,-4.543208208795676,13.58582952105556
16.627326222863637,-2.8360294523508176,11.537964790518046,-9.343925483538044,15.126757987423204
16.647333668086365,-5.895737830694194,10.921351884153038,-8.553726216833935,15.087169447307904
16.667341113309092,-6.219222096869882,9.737810998401986,-5.176505201770056,12.642372820162507
16.68734855853182,-4.779390388097907,7.309391876816074,0.2887180021995036,8.76937820166637
16.707356003754548,-2.387354970358277,5.882335511149401,0.8565248064571979,6.385175330166444
16.727363448977275,-0.6326979467407485,6.555598703548512,-1.2671040864123237,6.716468202289971
16.747370894200003,-0.7472989282624991,6.83014275823697,-1.1343663172488845,7.017768108080713
16.76737833942273,-2.3791286700397953,8.440923027302897,1.0064868810174632,8.787078321363163
16.787385784645455,-1.1070214367676596,8.458525372026179,1.2628674058753342,8.618849932556206
16.807393229868183,-2.211900630906294,7.321772962027712,0.0890210744161571,7.652623701910643
16.82740067509091,-3.0852157214455276,7.275076192526588,-0.32190669414836254,7.919367260102844
16.847408120313638,-2.349869330456973,7.6142002732355385,0.3812537338652321,7.969536535491389
16.867415565536366,-2.2789582785053266,7.683472443719039,1.4947795091893983,8.160706007568493
16.887423010759093,-2.51063202439949,7.602167184561761,2.431568809372894,8.36123485121333
16.90743045598182,-1.68908587957253,7.180930148154829,3.302452377506573,8.082646906718503
16.92743790120455,-1.0848186563477078,7.108101554012054,4.230249880617298,8.3445083420166
16.947445346427276,-1.4583451786231425,7.509537772284645,3.9539099857917654,8.61593650970004
16.96745279165,-1.908032409538934,8.410994046938425,3.642681587711719,9.360737181621467
16.987460236872728,-1.5200389041996905,9.13690168709948,3.9110730192018504,10.049155911499318
17.007467682095456,-1.3037934891929062,9.952322460469293,4.201540100486614,10.891186005887501
17.027475127318183,-0.508812115520417,9.949407074800487,4.547718412580802,10.936473631577035
17.04748257254091,-0.7690919855392978,9.438176811090138,5.340372086324067,10.891269740099286
17.06749001776364,-1.0827106164766025,9.741019352671461,5.018062919947396,10.991449385205236
17.087497462986367,-1.7206552994536732,9.8170858471134,4.801974909337359,11.08559460553547
17.107504908209094,-1.84553563108865,9.289466710330188,4.859766988787641,10.617415780590502
17.12751235343182,-2.3575295373911773,9.040164486673515,4.354576015571644,10.337920048247685
17.147519798654546,-2.7803269942259776,10.10427779485884,4.389203355920039,11.326640218741042
17.167527243877274,-2.965679274471022,12.017041120171928,2.735864270985471,12.719285194961724
17.1875346891,-3.215468366464801,14.716673259450639,0.18723932531295376,15.017175578152747
17.20754213432273,-4.5305991249589725,14.617536152497443,-2.766466562903106,15.609824619662419
17.227549579545457,-5.537720335683873,11.017566095555852,-2.2019129582324664,12.486036978145595
17.247557024768184,-1.5220733258103083,8.05648228914162,0.11685817003014345,8.198654277206607
17.267564469990912,-0.30310137961776384,8.087630462793902,-1.0270163688395566,8.169167654718743
17.28757191521364,0.7070978821612849,8.698811134544814,-1.365235301932779,8.823759671971919
17.307579360436364,1.041408163142564,9.466806199363049,-0.5432685491557064,9.564174300376958
17.32758680565909,0.7065987567174536,9.177366395565237,-0.5602260276695785,9.17597146936917
17.34759425088182,-1.5342490785552727,8.085604242418363,-1.4710309069191383,8.438145548713047
17.367601696104547,-4.015476423231551,8.071999894463818,-3.2403458384973467,9.530357200394315
17.387609141327275,-1.7613052147962052,7.405728975602052,-5.1321644383664164,9.175641046938438
17.407616586550002,-1.2948973360464822,7.473964883018398,-4.72139118897559,8.965468776363664
17.42762403177273,-1.526933742361518,8.481188411632049,-2.765581596741065,9.03142555451652
17.447631476995458,-1.2201585578444045,9.05530638690443,-1.2555650457395593,9.234311504388673
17.467638922218185,-0.7611791854469843,9.345436359764726,-1.273607519936141,9.450228621594569
17.48764636744091,0.46690984217648734,9.45059324675321,-0.8517329699354813,9.50866268045787
17.507653812663637,0.566178766011748,9.494919202807687,-0.7852653193220981,9.543294135738986
17.527661257886365,0.1084139242061122,9.242736299438867,-1.1474610065826807,9.314911009257228
17.547668703109093,0.10176156431820238,8.919379868801363,-1.9846236806409292,9.137965165949566
17.56767614833182,-0.6076854845902757,8.841341672396783,-2.728940780296903,9.273835594102732
17.587683593554548,-0.816655498745119,8.841366296603628,-1.914262613634633,9.079319847323736
17.607691038777276,-1.116738717109851,8.67005665726516,-1.5033340166206417,8.876864875295922
17.627698484000003,-1.399547626444551,8.93092968966481,-1.715401354170265,9.19339471497559
17.647705929222727,-1.5009894053316353,10.192384943959981,-1.698506143423309,10.449181578436434
17.667713374445455,-1.7060093805672956,11.196976214117411,-2.3685649620252014,11.561841169916633
17.687720819668183,-1.1376744576096824,11.91108134692364,-3.044562975872013,12.358713634251949
17.70772826489091,-0.8009933720235746,12.097504399424443,-3.119513133712292,12.505534810051032
17.727735710113638,-1.4404622672837317,12.219507903492463,-2.6957416485176777,12.609477886986285
17.747743155336366,-2.056419963507791,11.831291178408916,-2.410048826488505,12.233692404508597
17.767750600559093,-1.972205626531179,12.507051742912969,-2.802388426356056,12.986665830336415
17.78775804578182,-1.3896125822655234,13.44724779767974,-3.120925368444639,13.851288325633865
17.80776549100455,0.5814764167552302,13.108688041714792,-3.892846048439913,13.713663673755878
17.827772936227273,0.951682559816978,13.177446018176758,-3.6326014944203027,13.680000470647569
17.84778038145,-1.8161150363775773,11.758167378395672,-3.3817975510829963,12.387793408860823
17.86778782667273,-3.21758625434644,9.882441067787619,-4.542996132692629,11.32154024195196
17.887795271895456,-4.69662455956357,9.550888685825122,-4.977791109657784,11.76864147178257
17.907802717118184,-5.891007072704808,9.764433084813838,-7.276375083856778,13.493774962351058
17.92781016234091,-4.652977747441475,7.9341893781155,-5.130262208838475,10.600708615588626
17.94781760756364,-3.798907840779123,7.009430251631473,-0.5448194333868751,7.902462177224005
17.967825052786367,-2.765767466796541,8.428864206686056,0.830735853137749,8.992445190856488
17.987832498009094,-0.6177073260388777,8.574886869140931,-0.10433270230336872,8.516659205685915
18.00783994323182,-1.4338105973076323,9.54522449543631,1.6186261331258092,9.87026878211727
18.027847388454546,-1.3561419486547404,8.27215262288086,2.2849521144986724,8.641629819111554
18.047854833677274,-1.4373488114748614,6.04329394391358,0.6112778027965527,6.257468476875989
18.0678622789,-2.1335126212717674,5.4797391619074665,1.693964933649616,6.100909800208136
18.08786972412273,-2.351704620015096,5.437734148406593,2.3516591287537474,6.395920733466875
18.107877169345457,-2.3780571881815855,6.042437014170029,2.991347368081661,7.131396697179015
18.127884614568185,-2.495836894040273,6.19709283163678,3.383013911519126,7.503757796597782
18.147892059790912,-1.9271139746052277,6.568088538355404,3.847833853236493,7.840011275704148
18.167899505013636,-1.4193835310910394,7.059991562526636,4.5529877324718315,8.529230831750326
18.187906950236364,-0.9715052470135384,7.2994959866456375,5.199654654800411,9.010286638630848
18.207914395459092,-0.5469786979187463,7.942296041961212,5.52823682006216,9.698282262412611
18.22792184068182,-0.8572898091273712,9.024159720572388,4.255578444368197,9.99311743478335
18.247929285904547,-1.7667627091327045,9.963664592889081,4.7566751489683625,11.204811055850355
18.267936731127275,-2.480522718131863,11.788966573205498,4.9329632187255035,12.989841763215868
18.287944176350003,-2.360392378322485,12.442466602267038,6.263877082736236,14.17024527036877
18.30795162157273,-2.0987811525387334,11.084244237196827,7.034411393379804,13.265693652333551
18.327959066795458,-2.2460262819241494,9.943950490543294,5.330247382883814,11.522450635948095
18.347966512018182,-2.9079834308684163,9.650538579330467,4.68955362503375,11.0998744939435
18.36797395724091,-2.960088938505521,10.171034968366058,6.07906413006809,12.219978787355032
18.387981402463637,-2.5649706547999713,11.374363240497477,4.923767386838364,12.696622440359768
18.407988847686365,-1.4998852566146006,13.701849316095005,0.856132155621593,13.735959006667995
18.427996292909093,-1.176147239017015,13.1583290723046,-1.677929508156734,13.397677085874399
18.44800373813182,-1.6116462472803186,9.469321921877722,-2.138443017599979,9.773553272316907
18.468011183354548,-0.8364995926004306,6.718001706910222,-0.469610801532414,6.823017091478543
18.488018628577276,-0.4300456035732405,5.854075221656152,-0.5393814844821676,5.863101505209337
18.508026073800004,-0.2901099657841924,6.674654784929645,-0.8603153167755252,6.771887299283219
18.528033519022728,-0.47090622859001996,8.172672725624876,-1.4588325604814227,8.275004493395137
18.548040964245455,-0.43586476061750756,10.217574029917206,-0.22594508978836692,10.257581506462783
18.568048409468183,-0.5333061708819471,10.963052431359932,0.03694114348388635,10.960970641493303
18.58805585469091,-1.936574437808623,10.620591176684048,-1.6724154257889183,10.93834714057826
18.60806329991364,-1.6628985786955353,9.630763998534357,-2.9366282669801977,10.189030162148955
18.628070745136366,-1.0513600610240408,8.140030937993751,-3.935772853792577,9.123404024341127
18.648078190359094,-1.4309999968153508,7.814776031723671,-4.111178605155028,8.929570288106538
18.66808563558182,-1.316829234311163,8.146023253918406,-2.2379891311080664,8.552208178321077
18.688093080804546,-0.9328676908522812,8.385385881569936,-1.2354455870310546,8.531696478868657
18.708100526027273,-0.8094167270043037,8.777438239695359,-0.5702887076574674,8.825700584716264
18.72810797125,-0.42308907446798527,9.020321969082627,-0.07078477672462162,9.041239786637183
18.74811541647273,0.0579192736335038,8.89460733745758,0.35133282484132744,8.88974528227675
18.768122861695456,-0.10985432188240098,8.630134438647843,0.41953806441813407,8.653041549502618
18.788130306918184,-0.4215859724037963,8.644447838033239,-0.3424175483952004,8.651922599427918
18.80813775214091,-0.858176000930373,8.748549883649552,-1.121556919855587,8.868854272959512
18.82814519736364,-1.398356041014251,9.134024979753995,-1.8989256127557181,9.429044487400125
18.848152642586367,-1.5171841305688223,9.342117844801798,-2.482439042907094,9.78994330928159
18.86816008780909,-1.3139028381433715,9.844919630067729,-2.103720054548551,10.143721153578717
18.88816753303182,-1.8146379073685177,11.185235960463181,-2.2660581752812052,11.565451658569208
18.908174978254547,-1.7416889606691013,12.395446350032174,-2.552399656393357,12.76441943720303
18.928182423477274,-1.2199564802976417,12.788360920172781,-2.806140446195252,13.162403206272803
18.948189868700002,-1.363298719087154,13.633893745832415,-3.0754620003796505,14.026446160746909
18.96819731392273,-1.4083124171557129,13.443163691276917,-2.335734392478784,13.740006252355192
18.988204759145457,-0.8359190524703676,13.225139919131651,-1.480666964032692,13.307590547358334
19.008212204368185,-2.189375988235308,14.253226719539871,-1.751172834782963,14.541814244099974
19.028219649590913,-0.7972167620825936,13.550958110823778,-2.4669957846496295,13.810719074302211
19.048227094813637,1.6023255556163298,12.63101560947188,-4.85620917192004,13.583458891821053
19.068234540036364,-0.3577526565074885,12.377558656421442,-3.6907982520554174,12.956043097257627
19.088241985259092,-2.3290531532917833,10.101317642376198,-3.8849806713340085,11.088593904753234
19.10824943048182,-3.898592234507466,8.971169349736613,-7.599482625904577,12.3417055753108
19.128256875704547,-5.108400639533183,8.98539487805443,-8.06904413944611,13.15761662674073
19.148264320927275,-4.8400287663866255,8.262963206068617,-4.945640598153911,10.733192440831031
19.168271766150003,-5.000976913195196,6.647854831844821,-0.09940091805044379,8.338522096532191
19.18827921137273,-3.393482039456001,7.167198212141255,0.3925725648963655,7.9970309688834655
19.208286656595455,-0.4396278913008547,7.4143798692162015,-0.9044957749196539,7.404385782851302
19.228294101818182,-0.8608603955422957,8.204819660584825,-0.013058056544670444,8.317929604672406
19.24830154704091,-1.6614460371180046,9.843708908660433,1.4053961024304131,10.039885781682475
19.268308992263638,-2.209758972765543,8.616631842510321,1.13417585559319,9.0023470788285
19.288316437486365,-2.5209583575625905,6.762537554086929,0.767824421438462,7.225832263149158
19.308323882709093,-2.2156876161435566,5.851181569001398,1.6547192334386425,6.495742312527123
19.32833132793182,-2.0775948249355305,5.9712391729854986,2.2266867075044248,6.69021852352866
19.34833877315455,-2.0114997126000445,6.075226253712632,2.4356804343328116,6.857672602119567
19.368346218377276,-2.1582673670865775,6.376842397594588,2.5621199478650296,7.196224593742289
19.3883536636,-2.1239415876262724,6.476024543937029,2.94496248912381,7.430979437910543
19.408361108822728,-1.953682154914552,6.584423190918168,3.276457268318372,7.605154400863235
19.428368554045456,-1.6413102234366812,6.957430142939247,3.78348226200575,8.09106803394997
19.448375999268183,-1.8677519249406915,7.882044537458561,4.553203690679619,9.287585878916158
19.46838344449091,-1.0957200341855404,9.233846553160616,4.604505356129855,10.373946077354514
19.48839088971364,-1.296922445482228,10.746440499605022,4.728822775510777,11.824178901785304
19.508398334936366,-1.7550099072035528,11.603882816643726,5.12788043727687,12.79688511470331
19.528405780159094,-1.9317906437219063,12.254364595948433,5.748920151245958,13.684623480934578
19.54841322538182,-1.2005330415567543,11.286874826860515,6.68660238158215,13.160041067188997
19.568420670604546,-0.5377102008257624,10.35054468114439,6.2489277430282195,12.123701440865789
19.588428115827274,-1.0767843533783694,9.636737553451507,4.803916414010364,10.79242051678603
19.60843556105,-2.9906743505054885,10.2675513946217,5.235202459897971,11.933319865735598
19.62844300627273,-3.301405657952759,11.620357696221646,5.619559130061606,13.3204424104086
19.648450451495457,-0.7586449798737402,14.428617802890164,4.292714056397795,15.048786754470934
19.668457896718184,-1.3187144983779528,15.467660829010548,-0.3030260955077188,15.58131385265843
19.688465341940912,-4.3720200492025825,10.265230365469906,-4.756577776063823,12.036043765803907
19.70847278716364,-2.3918640057750045,7.0598690809940265,-3.242292187258132,8.260544239557015
19.728480232386364,-0.601523323743283,5.790809011292398,-1.3048139480701093,5.8661886925985245
19.74848767760909,-0.3481804231742878,5.74235802475859,-0.4019966240099873,5.846462205126067
19.76849512283182,0.9850432753073117,7.588125434436242,-0.45558240755455226,7.587644736923265
19.788502568054547,1.5526815608310418,9.430497662184823,0.3691886858214751,9.634482784261195
19.808510013277274,1.2327515636266455,10.359197224087184,-0.21560832305536293,10.372414099352175
19.828517458500002,-1.0489554033851043,10.004129561240637,-1.126616612442325,10.175662050346393
19.84852490372273,-2.9176306982282383,9.055530733851208,-2.567058098825077,9.813184103591235
19.868532348945457,-1.7371033584092768,8.016991292450845,-3.048573802811428,8.78889383078357
19.888539794168185,-1.110330859036392,8.03223537974609,-4.202894293622361,9.097681781365583
19.90854723939091,-1.2808544046140304,8.122368544751952,-3.6906285903691547,9.046503693207631
19.928554684613637,-1.496895631579509,8.503279690281815,-2.28642162915755,8.902921147759155
19.948562129836365,-1.6142760332695287,8.864882304555698,-1.4250612031532135,9.147496876952465
19.968569575059092,-0.7232764995918675,8.719237492031997,-0.880654861349191,8.769755566555228
19.98857702028182,0.302946939604214,8.529426746790051,-0.3457575397941052,8.564183743892196
20.008584465504548,0.06416641608090151,8.73175019060357,-0.2729944501144627,8.71943273500853
20.028591910727275,-0.7355112720518385,9.188394223054921,-0.5409210122553318,9.246869234575966
20.048599355950003,-0.8137732475420894,9.767728620270137,-0.7477212041884609,9.816807357125684
20.06860680117273,-0.9002876187335899,9.461578365152148,-1.237681447271138,9.599300499878252
20.088614246395455,-0.9902260145450859,9.474114080159795,-2.209651578823368,9.762643694486648
20.108621691618183,-1.7387064013091444,10.389228316023747,-2.4456159753334634,10.826537201937224
20.12862913684091,-2.226711085918619,11.337570356778299,-2.540458556709071,11.820893751911319
20.148636582063638,-2.0089064463733113,12.028618031952439,-2.327990035490245,12.423536180247263
20.168644027286366,-1.5446273333446086,12.385149252134239,-2.5846297613457905,12.738944312925694
20.188651472509093,-1.9345773205932812,12.6152177236972,-2.7133909910888288,13.050981139339623
20.20865891773182,-1.5299607594687197,12.734448450432048,-2.0416861811973295,12.98784836175765
20.22866636295455,-2.0183923114739915,13.849325426915406,-1.7575989225542004,14.093204198295634
20.248673808177273,-0.12026221876388027,14.086168674467602,-3.471554869423164,14.52118023714544
20.2686812534,1.2660763952154084,14.886542938264189,-4.4048650453618095,15.587126223028019
20.288688698622728,-0.01856805063016411,12.7172297770128,-4.152850079350764,13.363947399842612
20.308696143845456,-2.8006351038175312,10.433030636920106,-7.002419168505655,12.85365586532788
20.328703589068184,-5.590300533495444,10.36288069606109,-7.967431555552369,14.264641915318668
20.34871103429091,-6.581636444420296,9.685754938926276,-6.11842530325092,13.145296936041781
20.36871847951364,-5.06493442073106,7.471078814438842,-1.9309608923460324,9.31399239826643
20.388725924736367,-3.3157250702674994,6.054932787040024,0.007545375355426646,6.837563240749618
20.408733369959094,-1.426572182692457,7.43737049826185,-0.8783167097398474,7.7131662117592406
20.42874081518182,0.8204105938906879,7.402365978189709,0.16693215948965415,7.384959319925239
20.448748260404546,-0.8145714076842138,9.322489461342403,3.4377035460811745,10.010334154233865
20.468755705627274,-0.3131830085166278,8.965101910189158,3.550326113152573,9.616045660284755
20.48876315085,-1.235246376673446,5.592567287622686,0.7126241285083267,5.782666039412437
20.50877059607273,-2.1690849395580836,4.647031375042974,0.5681678373430368,5.175176331780909
20.528778041295457,-2.2666677920400633,5.501002650215458,2.1704485085187395,6.318352226808378
20.548785486518184,-2.5951337203568867,6.4262006462234895,2.8647944353362274,7.517528058950526
20.568792931740912,-2.9345472399151493,6.657830862922939,2.9685487952816976,7.841093946136752
20.58880037696364,-2.3292181711250994,6.734858729823458,3.3740018908328504,7.897186438920051
20.608807822186364,-1.7190206935562564,6.874256576003385,3.2298267325170844,7.774960183660685
20.62881526740909,-1.503809293437843,7.2177716861388586,4.387598635425351,8.587102792540097
20.64882271263182,-1.5388909052016346,7.989127342217661,4.8866740866019684,9.488077971316034
20.668830157854547,-1.56177332161385,9.129217356646443,4.3292292053654595,10.225975762200079
20.688837603077275,-1.5238300505809503,10.479040608031864,4.3049729038611355,11.428390244442813
20.708845048300002,-1.5763742732555206,11.841098610059841,4.968116530735568,12.940941677210034
20.72885249352273,-1.693705106735866,12.25976207884985,5.957512223938571,13.732453318304737
20.748859938745458,-1.1733109260507923,10.920494773857385,6.746387740098294,12.892742122618877
20.768867383968185,-1.1725138510710322,10.047369730477643,5.83797500224739,11.67587434793003
20.78887482919091,-1.6435629724690852,9.356819316784971,4.908107072841762,10.699498770816252
20.808882274413637,-2.1998189219983604,9.41706597713521,4.77988152899571,10.779138804834096
20.828889719636365,-2.874540363249856,11.025798819710072,5.050819574396373,12.475689668420948
20.848897164859093,-1.3913016890895737,13.70308743124758,4.3909825871631325,14.417522118377628
20.86890461008182,-1.7572101227810728,14.569640931114971,-1.1933869631095753,14.835879994724593
20.888912055304548,-4.850677090885813,10.833685479248919,-4.818708383834711,12.664405304541708
20.908919500527276,-2.1327640555070952,7.543931955373003,-1.6484312386770368,8.133822909129206
20.928926945750003,-0.48886167446238754,6.365412554365679,0.04060282874109827,6.3237842288119035
20.948934390972727,-0.5540598751926987,6.664421940071815,0.0609460959397624,6.722773839215035
20.968941836195455,0.9770499518248252,8.248329999752919,-0.6528602315058891,8.292789648230626
20.988949281418183,0.6997231584354291,9.996383131075444,0.19936085228288145,10.066316785686254
21.00895672664091,-1.4576509180514645,11.088034906022672,0.12246639178897026,11.14004117707607
21.028964171863638,-2.0872144746534933,10.543099709247203,-1.7740347564033707,10.935399519808069
21.048971617086366,-1.9541202046691908,8.71227804691259,-3.897530659822789,9.702245273913004
21.068979062309094,-1.191752026430204,7.7921537692906595,-5.4403027707342035,9.614133804708164
21.08898650753182,-1.0551148070134246,7.315677210335523,-4.861287133567396,8.818771808727583
21.10899395275455,-0.5708977930452633,7.6574820515873245,-2.5351843978082282,8.09733584579337
21.129001397977273,-1.3453624671036595,8.802398390707873,-1.0626671863984476,8.959877565492327
21.1490088432,-0.9109124467109115,9.458157595236246,0.033454357833675674,9.508552874999008
21.16901628842273,0.3766175223270086,9.479550571710549,0.16973469001780117,9.486904214054261
21.189023733645456,0.9105016587141254,9.167922289387258,0.5047207085617637,9.224243455454184
21.209031178868184,0.4282287688779953,9.12235313600336,0.7120348780443944,9.166121431408065
21.22903862409091,-0.8973228281704709,9.359628795225776,0.9389252047710495,9.444888964702695
21.24904606931364,-0.964547250341856,8.938536103433863,0.5131554251235589,9.010364757992198
21.269053514536367,-0.38776056357714433,8.688604659110947,-0.27759375381570744,8.695768629058392
21.289060959759095,-1.0758873390190395,9.569075634943019,-1.8239590773299317,9.797231792310464
21.30906840498182,-1.4950207288590536,10.512779660507483,-3.023782104486684,11.05322707179237
21.329075850204546,-1.6153235250083477,11.416927634084113,-4.632574904884109,12.403285123091523
21.349083295427274,-1.7294436908537025,12.202309075690302,-3.956815725130559,12.977154868547906
21.36909074065,-1.7894857386696121,12.943091310375275,-2.571933535169733,13.285701499247619
21.38909818587273,-1.3416397459907614,13.138155082135928,-2.370868497126646,13.445813434611432
21.409105631095457,-1.1214367705914556,12.75458676786563,-1.621617379092622,12.87805449214545
21.429113076318185,-1.2887822274408918,13.054004404679565,-1.6016858216092202,13.243017524800287
21.449120521540912,-0.5066339903345854,13.109707653930013,-1.6497219497327253,13.203662696325981
21.469127966763637,1.8315867851095073,12.5906191302329,-3.8034645120388393,13.261176582287233
21.489135411986364,0.2736915813654629,13.369963658214274,-5.149562772583335,14.365947347756714
21.509142857209092,-2.1781057725070307,11.430829517758887,-4.815000450050836,12.568106475285896
21.52915030243182,-3.76514427661173,9.813408065246344,-6.3799385255679475,12.314414320531334
21.549157747654547,-6.071823277450236,10.15931080269806,-7.047973053129287,13.763419459300756
21.569165192877275,-6.097706726874877,10.162821667802518,-4.4492638866082395,12.657022068763427
21.589172638100003,-4.10518723552359,7.246986504959245,-0.8252514236203933,8.392016698469734
21.60918008332273,-3.063314783587421,7.118217331904401,-0.37347508912805205,7.738567499858914
21.629187528545458,0.1592289563280336,7.5242576360572535,0.4772987102299322,7.566824207314555
21.649194973768182,0.5326155206058645,7.227355562605031,1.6312530506678244,7.461114249880906
21.66920241899091,-0.6119684803022544,8.786243539935407,1.9779532719245745,8.992793246001925
21.689209864213638,-0.8814586303704248,7.204534933392744,0.8026905494912263,7.3411015981666745
21.709217309436365,-1.9189331485868262,5.880540905465366,0.5515462479352119,6.16740482162085
21.729224754659093,-1.7829112979771726,5.516313544109973,1.9683276457041228,6.152101715331826
21.74923219988182,-1.6138670834154272,5.843298103253221,3.2102355419274837,6.842374489359557
21.76923964510455,-2.0594791052035313,6.0490142934411635,3.7035033542128866,7.3996121416068465
21.789247090327276,-2.436496719907471,6.237873834077181,3.469564671898611,7.534952795612323
21.809254535550004,-1.5285564617047411,6.646668616718575,3.221744837888338,7.541325269449402
21.829261980772728,-0.9963292665087201,7.035220206290832,4.381089538675637,8.35491328941592
21.849269425995455,-0.5445929915152985,7.779708657123337,5.621542052535421,9.605757490909918
21.869276871218183,-0.5689373365205446,9.537330570166095,5.256533642017506,10.908145308178126
21.88928431644091,-0.8885557980598539,11.072219870022382,4.6818048012666225,12.057966089980104
21.90929176166364,-1.7133650800996392,12.154525464739061,4.554021499255758,13.084765674800801
21.929299206886366,-1.6298434047367,12.32954427295461,5.9018433028669515,13.771273238576473
21.949306652109094,-1.0003544825027917,11.33622773571406,7.38937027549872,13.573294395396058
21.96931409733182,0.109812451455797,9.914275189760405,6.565190685508565,11.874729790618659
21.989321542554546,-0.7432271036809173,8.908182877980396,4.155628303690335,9.87093951986809
22.009328987777273,-2.8583694934018764,10.011858782422857,5.202410480344361,11.64945472394188
22.029336433,-2.6618239645119623,10.215057633130037,6.271982165635802,12.27709580043005
22.04934387822273,-1.6913892860433177,11.207450247528033,3.7493831230495522,11.914747363278192
22.069351323445456,-2.3841868581491292,13.231411205686507,-0.054317598410918266,13.493377158465059
22.089358768668184,-3.0955966387363074,11.562677877500668,-2.727668818670283,12.228539174210344
22.10936621389091,-2.2652871270227615,8.346844404668671,-1.654681401998666,8.835982246457776
22.12937365911364,-0.44850983184909726,6.368629380950671,-1.279351856038224,6.486724500633032
22.149381104336367,0.22420471292174446,6.6727776966561185,-0.8771072680368059,6.756636592029867
22.16938854955909,0.06327044517242969,8.640875492531379,-0.7164416531435073,8.651574435581235
22.18939599478182,-1.4588681740047675,10.859199503736665,-0.13508500922861377,10.968239052250553
22.209403440004547,-2.1323357825914746,11.83642531444348,-0.469592392177221,12.038822519521313
22.229410885227274,-0.8520818513482363,10.128375010228485,-1.9383281446831322,10.337231861671404
22.249418330450002,-1.2888583730830132,8.756958302340637,-4.675120959960795,10.008990155988332
22.26942577567273,-1.6340455248169254,8.290032933051263,-5.765749134958673,10.242212745001273
22.289433220895457,-0.6834508019514552,7.612678366256594,-3.479931307629023,8.384083475969389
22.309440666118185,-0.7013967469246752,7.676500183515253,-1.9784145428113695,7.973636820734043
22.329448111340913,-0.6280906822729803,8.077075254093927,-1.5153278393343754,8.227616328811814
22.349455556563637,0.003451858338767341,8.348026450125838,-0.7469354994466697,8.394191427575665
22.369463001786364,0.3779001431129846,8.709597391454476,-0.3345445071632542,8.712207156813653
22.389470447009092,0.7033830654398059,9.391646056731505,-0.6178660983388103,9.449784931763507
22.40947789223182,0.28816057692249997,9.465183756716232,-0.9615631607561638,9.507892426959001
22.429485337454548,-0.3817666215342338,9.354456370344016,-1.0518708447846303,9.430851253307772
22.449492782677275,-0.5446566675630989,9.348541576345909,-0.8950954693754193,9.397828366895459
22.469500227900003,-0.343448666164954,9.589004064628986,-0.743507166190432,9.633000112154777
22.48950767312273,-0.5151536015926348,9.941096553868475,-0.7923867730451598,9.977172991266375
22.509515118345455,-0.8923372151378862,10.275801959379805,-0.8581117024046772,10.359055377893586
22.529522563568182,-1.2666886296688626,10.780328886398015,-1.0722822374855243,10.898392937894782
22.54953000879091,-1.3561345181002076,11.263904291133295,-2.3969567462885766,11.60572080520618
22.569537454013638,-0.6612673395333822,11.972163731002556,-3.353205119946842,12.439931261055868
22.589544899236365,-1.366548828073759,12.172283442957697,-3.2268223796849216,12.673851986556476
22.609552344459093,-2.1261556442662317,11.604639173605475,-2.2495007080899647,12.007057240769326
22.62955978968182,-1.9002664511568894,10.806951532487778,-2.0079476647832486,11.157221841834367
22.64956723490455,-1.1212086047592515,11.77368513384059,-2.0429007305291393,12.002501270372703
22.669574680127276,-0.5871617695944702,13.346739760578041,-2.004686308223613,13.506655185715951
22.68958212535,1.7953032655415146,13.109796882302872,-2.3083053522668657,13.425849362758784
22.709589570572728,2.4236185613260552,13.102551112326713,-3.4944393833967666,13.802542335189825
22.729597015795456,-0.3999180915879539,12.254115849236209,-3.869074678928228,12.81965864945973
22.749604461018183,-3.6087019562299147,10.464233925731474,-3.1953998586315397,11.561532887361647
22.76961190624091,-6.874096431470092,10.328634137763936,-3.888495958935815,12.974654335616695
22.78961935146364,-5.936291140889993,9.78703841523679,-4.123570749390571,12.179456854014823
22.809626796686366,-4.137398251772283,8.014644707412053,-2.094292679613742,9.254889579639865
22.829634241909094,-3.0432574432117674,7.647872782630401,-1.7127594451639345,8.420058900518775
22.84964168713182,-2.4136425276661666,9.142157786873733,-1.7414195129588688,9.642102896114325
22.869649132354546,-0.5519476125302442,7.51018100986442,0.7446785747615787,7.51734369263275
22.889656577577274,-0.8869078366763317,8.817851118478815,1.2747002726185765,8.994990318769387
22.9096640228,-0.40925398982349526,9.362114433567658,1.5662534920896611,9.463261035068642
22.92967146802273,-0.676662380542098,7.032847689450992,0.2947701957095365,7.098933081273876
22.949678913245457,-1.5906307094703882,5.9066594848051395,0.9332675483036944,6.165896361931166
22.969686358468184,-1.7030334221765226,5.170709018593101,2.6992739633397327,6.10502792233357
22.989693803690912,-1.8347547617392979,5.430203581774344,3.5500336484437516,6.717610779624277
23.00970124891364,-2.11246374896486,5.7186637730431436,2.507126652967001,6.604562648743554
23.029708694136364,-2.047314684622173,6.420071123328398,2.692919623802391,7.248949903611712
23.04971613935909,-1.7423727756981429,7.096317052262131,3.4285677934563994,8.081134784452944
23.06972358458182,-1.5255895452854387,7.90354502356739,4.639628710032741,9.278891376492432
23.089731029804547,-1.1401747187112485,8.84203852878813,5.682315562978861,10.58547834636236
23.109738475027275,-0.938875160413439,9.884581822826483,5.781590862546353,11.477582315457944
23.129745920250002,-1.1956191429086114,10.44271083119262,5.452793648161832,11.853796157729091
23.14975336547273,-1.787766266164325,11.22004746175016,4.854741077497686,12.342749950772046
23.169760810695458,-1.4060295589356522,11.534744266207898,5.2219251478319695,12.754936066691796
23.189768255918185,-0.7501829856809205,10.74925608714664,6.212100848105086,12.421944773617142
23.20977570114091,-0.507440004535128,9.686749602073155,5.807605155768975,11.31705655414772
23.229783146363637,-1.474347579772012,9.391983052931739,5.009535457656161,10.743971072589558
23.249790591586365,-2.5379234939106836,10.539365249935921,4.829498977354491,11.872852169122725
23.269798036809092,-2.5584800276529522,12.718629281003981,5.660373568924983,14.143557204784583
23.28980548203182,-1.503982029804269,14.85955574111896,3.588219237937395,15.37095249541105
23.309812927254548,-2.0259231242656703,12.92948580745371,-1.6763169573697774,13.211610732461786
23.329820372477275,-3.1149679265032924,8.84519580587193,-2.9933069758531494,9.81378119436025
23.349827817700003,-1.8434719212703288,6.7427148524212255,-0.8078663789460157,7.054338803120835
23.36983526292273,-1.4692903353307352,6.47867879219403,0.6074945002102764,6.659615097131373
23.389842708145455,-0.4430416519916967,7.56266046547718,0.041792330102911425,7.58808413546814
23.409850153368183,1.4098448926821974,8.70763777294357,-1.2057489317809196,8.896219432751112
23.42985759859091,1.3050835260902653,10.786040951657228,-1.0599671389255894,10.919580722353858
23.449865043813638,-1.1730762888449315,12.546210409293494,-1.0511914284736665,12.636951279939012
23.469872489036366,-2.6671058056208694,11.979177099733278,-0.8842991096406163,12.317433563917046
23.489879934259093,-1.2875519505113657,9.305794570579346,-1.1574922192966708,9.445467717237854
23.50988737948182,-1.1997428156811052,7.91849480481349,-2.5882209393356326,8.453765932197166
23.52989482470455,-1.9125415577409153,7.368251915348449,-3.5990623118875327,8.383102303800394
23.549902269927273,-0.8657133216767077,6.868762260388261,-2.637159431294119,7.431011540864539
23.56990971515,-0.8118946480108135,6.935910964591883,-1.906984450069107,7.226082533836938
23.58991716037273,-0.548957464278048,7.538143758743237,-0.7259817389586585,7.594430949624937
23.609924605595456,-0.21153248471101266,7.963448240912202,-0.7669242301723899,8.005106120840424
23.629932050818184,0.5349471119240877,8.738753290345041,-0.9845296831471799,8.80794894693103
23.64993949604091,0.7580028315566197,9.12909988621663,-1.0193722050796594,9.217449837041178
23.66994694126364,-0.08249178698912368,9.356041611592767,-0.9694490200685081,9.413156046662305
23.689954386486367,-1.106782668240621,9.585780772195292,-1.1600409060257022,9.708698734138151
23.709961831709094,-0.6597028647139187,9.232964287578087,-0.7682602844005034,9.292108188687639
23.72996927693182,-0.9793620308904948,9.418944033090126,-0.8181818277142552,9.501035111136968
23.749976722154546,-0.9528276243530164,10.464240471519563,-0.984379150756546,10.558611140658817
23.769984167377274,-0.18151043347637094,10.982330179107718,-2.5322283176826383,11.268788211679484
23.7899916126,0.5448960219407699,11.086778674884279,-4.16774627612164,11.859199915130395
23.80999905782273,-0.16565107702276674,11.68558806062332,-4.215199048101911,12.421931058172188
23.830006503045457,-1.4419009567462044,12.178207687018055,-2.578990191672565,12.534388185918177
23.850013948268185,-1.9027796298386384,12.264037811905855,-2.0889317615604504,12.578535399262217
23.870021393490912,-0.48649546504287683,12.525742227229744,-2.1959309677153276,12.729181080793172
23.89002883871364,0.2865449548776367,13.988599198775981,-3.704358798726445,14.474899525935108
23.910036283936364,0.34486955456388807,13.963837735390268,-4.6559923959973695,14.72474717157961
23.93004372915909,0.7532139231253048,13.80821719290444,-4.323030028337407,14.489383146161229
23.95005117438182,-0.8275078327680058,12.718694185395153,-3.4878921552702415,13.221857887810234
23.970058619604547,-3.526302377329131,10.611118771349226,-5.288184756266934,12.33150902313188
23.990066064827275,-4.614709169111394,9.074018666737338,-6.69123115214342,12.243567896354241
24.010073510050002,-5.663356444955061,9.326094028502531,-6.569305632301594,12.6561917399648
24.03008095527273,-3.9098256883399487,8.35039979102516,-2.5150613733343357,9.643481602792356
24.050088400495458,-2.857667930356156,7.373219885159383,-0.33365045963394047,7.860444245974489
24.070095845718182,-1.403534813908457,5.760641933013414,0.5465125332448422,5.964018122847735
24.09010329094091,-2.7034508290557837,7.9862840108857185,-1.217910831121819,8.478363970250767
24.110110736163637,-1.1563423265628237,10.457291607443281,-0.7451122101718438,10.655545914128307
24.130118181386365,-0.734527262903096,8.793635319862082,0.42977664610274774,8.810702731163296
24.150125626609093,-2.090747517417735,9.418074997735452,1.3154693883193327,9.762460479243845
24.17013307183182,-0.6016130969178622,6.460875294594961,1.7090498798515559,6.666447983680473
24.190140517054548,-1.4303325796817863,4.9390180694654005,1.691141543457152,5.443932408300035
24.210147962277276,-1.1513280261457417,4.675008396082898,3.986062502077483,6.174194972514134
24.230155407500003,-1.473155768398712,5.293552485203699,4.1643553923262475,6.962654003996429
24.250162852722728,-1.8075011046036313,6.000068036149909,2.7223358663230446,6.791638377275292
24.270170297945455,-1.899822237298146,7.180108987092739,2.6072846610910814,7.904414454223993
24.290177743168183,-1.6985506061701618,7.8936362867964736,3.6115503787247314,8.812908996409062
24.31018518839091,-1.2516099409965546,8.847581253838268,4.822893964487423,10.185787607969775
24.33019263361364,-0.9089798212237138,9.550729068535231,5.5706926750462005,11.06792108458342
24.350200078836366,-1.3508553570427002,10.673097475789358,5.909867081984566,12.292661881350499
24.370207524059094,-1.6932200057573958,11.309233065756837,5.290415171040162,12.593470014996306
24.39021496928182,-1.4144195980963523,11.902343282097771,4.57863484113869,12.826303053838286
24.41022241450455,-1.473140809217665,11.258004361115942,6.139796123133606,12.915203073610583
24.430229859727273,-1.3664556645855828,10.310380516803031,7.110245315083859,12.587768282351172
24.45023730495,-2.2936827528564474,9.185046096896766,5.203221114012993,10.817174878498678
24.47024475017273,-3.1152916892500464,10.349776092168485,5.205985279066392,11.992759985876988
24.490252195395456,-2.399136456308712,11.965291067177661,5.6189259867316,13.452001146991762
24.510259640618184,-0.4504687388683708,14.175381429240577,3.5874026052848493,14.558718632352816
24.53026708584091,-1.73377267185427,12.622184858523823,-2.016717188608243,13.057350990928436
24.55027453106364,-4.14597138018432,9.351700219511958,-4.480340850485717,11.033370352111524
24.570281976286367,-1.9432912094147128,7.472993241219614,-1.5471314933773548,7.939913283077525
24.59028942150909,-1.240672880944507,7.237883154034451,0.4667898701312797,7.336923622553838
24.61029686673182,0.747828873811953,8.020029606010109,-0.5369108541461384,8.049610939772665
24.630304311954546,1.644689248231937,9.604723224794917,-0.970917179310506,9.8419361853634
24.650311757177274,1.6602614922761598,10.768866454505941,-0.46440942821606446,10.848067915415513
24.6703192024,-0.950869345125095,11.335286286534306,-1.16095313054377,11.48530460200091
24.69032664762273,-2.8185582239688696,10.020865699470983,-2.824843023352709,10.75054139635698
24.710334092845457,-1.2461419615659715,8.120068240345585,-4.789101012351515,9.526866769455475
24.730341538068185,-0.8071584150947607,6.748026935960397,-4.19143887544108,7.987574980838196
24.750348983290912,-1.403594614137694,6.853192727809035,-2.371034820656669,7.382788910181128
24.770356428513637,-0.7325703618227681,7.274790311092777,-1.511828179784263,7.458562584030244
24.790363873736364,-0.7826731913077575,8.264115397788322,-0.6391944948233498,8.337856672201402
24.810371318959092,-0.19193920156759706,9.102641174552918,-0.21894582715638533,9.091776689948817
24.83037876418182,0.09420603238103065,9.620114806887049,-0.2583767825875598,9.641544739731216
24.850386209404547,0.36264335256703123,9.958324198532123,-0.20730467894996168,9.948709036578304
24.870393654627275,0.3688179153166901,9.84208337418597,-0.16196240811346024,9.869613937869405
24.890401099850003,-0.0642947854523219,9.402380947253071,0.09222730661898329,9.3862250379138
24.91040854507273,-0.7160458095306084,9.016639823131246,0.19826406940727706,9.061522738539878
24.930415990295458,-0.5946135189432541,8.931689927492812,-0.17120338093609097,8.938337570976959
24.950423435518182,-0.7211268912202597,9.23483780132151,-1.0472941924120558,9.336958791070812
24.97043088074091,-0.9246521634571581,9.340621754478729,-1.4112119359491329,9.477297529349553
24.990438325963638,-0.738046292802237,9.823547164123612,-1.5347093673540073,9.986989873571387
25.010445771186365,-0.7230745226208205,10.355575212332262,-1.870015102109752,10.527191017651884
25.030453216409093,-0.5583723031700967,11.56378761650591,-3.667863981918947,12.169222986562964
25.05046066163182,-0.38653131311370276,12.505622799925165,-5.219074232880238,13.530978706542747
25.07046810685455,-0.98218824132775,12.579057811894176,-3.4593570683959403,13.106813352436882
25.090475552077276,-0.9103011062257068,12.778536550306388,-1.436195238656443,12.867143915087487
25.1104829973,-0.563393827054832,13.876597624447058,-1.8651998422296385,14.037032282707997
25.130490442522728,0.4623668883485311,14.071667309797093,-2.6080628463805926,14.292058440564121
25.150497887745455,1.2458255206537003,13.157339709927586,-2.9712238060346388,13.580562307740184
25.170505332968183,1.315384488191399,12.128814289822008,-2.6114644089257335,12.428543689888912
25.19051277819091,-1.066768323937772,11.88991098804229,-1.7521908684722085,12.133478675851745
25.21052022341364,-3.868164128848291,11.151537923231746,-1.9834436173667194,11.87989599484422
25.230527668636366,-4.149385504784657,9.366864066398502,-5.29309123832052,11.647221226185192
25.250535113859094,-5.442294675914925,8.602903730952718,-9.392387090146112,13.739928398462451
25.27054255908182,-4.68170122828065,8.262708150794575,-5.769394280176901,11.215622121267213
25.290550004304546,-3.5116950523963277,7.437434959928769,-1.3142099448439952,8.242689281137409
25.310557449527273,-2.6932679674435334,6.147226551755667,1.4480460222775862,6.934385867945256
25.33056489475,-2.0118569981698813,6.402366590250376,0.8690617052815016,6.740115091888443
25.35057233997273,-1.840681626302423,10.415939738973325,-0.9966947930782021,10.686041072122727
25.370579785195456,-0.08960533114164865,9.828472317862841,-0.3896473250173263,9.777238595027145
25.390587230418184,-1.8169583656823731,9.749866010347162,2.058569210338061,10.147731800863024
25.410594675640912,-0.8705405061811546,7.514360098774406,2.8474409381898775,8.063706096372455
25.43060212086364,-0.7970292513858923,5.609011179671464,2.2237333488246676,6.110604408249323
25.450609566086367,-1.5619892756004776,6.073640405147872,2.291681802672533,6.658370746329671
25.47061701130909,-2.3194858788643375,6.436393367107373,2.111824912461589,7.174922251910523
25.49062445653182,-2.641455772460906,6.631825915741062,2.1930825492106245,7.453893156022044
25.510631901754547,-2.569712933553121,6.956644238519752,2.90400195239079,7.982906812794131
25.530639346977274,-1.6861769686913262,7.277147004187375,3.575559441987683,8.254389485953718
25.550646792200002,-1.2104906305736265,7.8196604966840075,4.65461648942357,9.214453745287791
25.57065423742273,-0.8555290814659846,8.476140643624397,5.723703369678866,10.225798357197746
25.590661682645457,-1.1287101439060554,9.102126296435438,5.967948995178608,10.980900835215719
25.610669127868185,-1.22769780400851,9.450564209088,5.846780085914843,11.142088390137516
25.63067657309091,-1.4262130475119201,10.135233364562382,4.800310483856861,11.34264069394741
25.650684018313637,-1.3844450354209783,10.323000854180268,4.8621621727587945,11.455961984258927
25.670691463536365,-1.5256840678452888,10.174457527080987,5.6833722743921005,11.797567581991146
