"Time (s)","Acceleration x (m/s^2)","Acceleration y (m/s^2)","Acceleration z (m/s^2)","Absolute acceleration (m/s^2)"
2.240307900E-2,-2.579952478E0,4.389268875E0,6.873030663E0,8.553384508E0
2.481953700E-2,-2.594316959E0,4.331810474E0,6.935276985E0,8.578643793E0
2.723594300E-2,-2.575164318E0,4.250411510E0,7.062164783E0,8.635487288E0
2.965229800E-2,-2.606287479E0,4.219287872E0,7.193839550E0,8.737645681E0
3.206875600E-2,-2.606287479E0,4.171405792E0,7.351850510E0,8.845511100E0
3.448526600E-2,-2.572770119E0,4.101977348E0,7.497890472E0,8.925453814E0
3.690172500E-2,-2.560799599E0,4.042124748E0,7.629565716E0,9.005928052E0
3.931818300E-2,-2.546435118E0,3.987060547E0,7.775605679E0,9.101704636E0
4.173469300E-2,-2.548829079E0,3.931996346E0,7.919251919E0,9.201721355E0
4.415120400E-2,-2.560799599E0,3.886508226E0,8.060503006E0,9.307757490E0
4.656771400E-2,-2.565587759E0,3.819473505E0,8.208937645E0,9.410487536E0
4.898422500E-2,-2.517705679E0,3.740468264E0,8.366948128E0,9.504512912E0
5.140073500E-2,-2.486582518E0,3.685404062E0,8.503411293E0,9.595483278E0
5.381729800E-2,-2.465035677E0,3.630339861E0,8.637480736E0,9.688232133E0
5.623386000E-2,-2.424335957E0,3.560910702E0,8.711697578E0,9.718598899E0
5.865042300E-2,-2.366877556E0,3.510634661E0,8.817038536E0,9.780942369E0
6.106698500E-2,-2.378848076E0,3.484299660E0,8.908013344E0,9.856569587E0
6.348354800E-2,-2.359695196E0,3.450782299E0,8.984625816E0,9.909569161E0
6.590011000E-2,-2.378848076E0,3.424447298E0,9.099541664E0,1.000936641E1
6.831667300E-2,-2.398000956E0,3.402900219E0,9.212064743E0,1.010901950E1
7.073323500E-2,-2.419547796E0,3.386141777E0,9.350922585E0,1.023522940E1
7.314979800E-2,-2.419547796E0,3.398112297E0,9.511326790E0,1.038589024E1
7.556636000E-2,-2.409971237E0,3.386141777E0,9.638215065E0,1.049614725E1
7.798292300E-2,-2.417153835E0,3.383747578E0,9.753130913E0,1.060263849E1
8.039948500E-2,-2.429124355E0,3.393323898E0,9.865653992E0,1.071197558E1
8.281604800E-2,-2.445882797E0,3.417264938E0,9.889595032E0,1.074542378E1
8.523261000E-2,-2.488976717E0,3.417264938E0,9.956629753E0,1.081698575E1
8.764917300E-2,-2.510523558E0,3.424447298E0,1.001408768E1,1.087710990E1
9.006573500E-2,-2.503341198E0,3.414870739E0,1.003324032E1,1.089008589E1
9.248229800E-2,-2.500947237E0,3.431629419E0,1.006675816E1,1.092567789E1
9.489886000E-2,-2.486582518E0,3.422053099E0,1.007154560E1,1.092380752E1
9.731542300E-2,-2.522494078E0,3.414870739E0,1.004521084E1,1.090552976E1
9.973198500E-2,-2.546435118E0,3.434023619E0,1.002845287E1,1.090168414E1
1.021485480E-1,-2.560799599E0,3.436417818E0,9.992540359E0,1.087278827E1
1.045651100E-1,-2.575164318E0,3.424447298E0,9.949446678E0,1.083281126E1
1.069816730E-1,-2.579952478E0,3.436417818E0,9.872836113E0,1.076745165E1
1.093982350E-1,-2.599105358E0,3.450782299E0,9.844106674E0,1.075033410E1
1.118147980E-1,-2.608681440E0,3.443599939E0,9.784255028E0,1.069557132E1
1.142313600E-1,-2.639804840E0,3.457964420E0,9.700460434E0,1.063132260E1
1.166479230E-1,-2.630228519E0,3.501058578E0,9.650184631E0,1.059724382E1
1.190644850E-1,-2.646987200E0,3.510634661E0,9.585543633E0,1.054579270E1
1.214810480E-1,-2.644593000E0,3.541758060E0,9.520903587E0,1.049692943E1
1.238976100E-1,-2.670928240E0,3.568093300E0,9.465838432E0,1.046265954E1
1.263141730E-1,-2.661351681E0,3.565699100E0,9.410775185E0,1.040959617E1
1.287307350E-1,-2.658957720E0,3.587245941E0,9.389227867E0,1.039692212E1
1.311427140E-1,-2.663745880E0,3.556122780E0,9.322194099E0,1.032689954E1
1.335306830E-1,-2.630228519E0,3.584851742E0,9.283887863E0,1.029367951E1
1.358995890E-1,-2.599105358E0,3.589639902E0,9.259946823E0,1.026584037E1
1.382692770E-1,-2.615863800E0,3.613580942E0,9.200093269E0,1.022459910E1
1.406389640E-1,-2.584740639E0,3.604004860E0,9.168971062E0,1.018527199E1
1.430078700E-1,-2.575164318E0,3.618369341E0,9.130665779E0,1.015347849E1
1.453767770E-1,-2.582346439E0,3.635128021E0,9.101935387E0,1.013547713E1
1.477464640E-1,-2.589528799E0,3.644704342E0,9.089965820E0,1.013000532E1
1.501161520E-1,-2.603893280E0,3.647098541E0,9.054053307E0,1.010234969E1
1.524850580E-1,-2.596710920E0,3.632733822E0,9.030112267E0,1.007385677E1
1.548539640E-1,-2.642199039E0,3.630339861E0,9.008566856E0,1.006552831E1
1.572236520E-1,-2.620651960E0,3.627945423E0,9.003777504E0,1.005474087E1
1.595933390E-1,-2.644593000E0,3.630339861E0,9.001383781E0,1.005972910E1
1.619622450E-1,-2.646987200E0,3.604004860E0,9.020536423E0,1.006804200E1
1.643311520E-1,-2.661351681E0,3.613580942E0,9.032507896E0,1.008597833E1
1.667008390E-1,-2.637410879E0,3.604004860E0,9.001383781E0,1.004836789E1
1.690705270E-1,-2.632622480E0,3.582457781E0,9.010960579E0,1.004799062E1
1.714393810E-1,-2.620651960E0,3.565699100E0,8.989413261E0,1.001955975E1
1.738082870E-1,-2.618257999E0,3.592034340E0,8.951107979E0,9.994014193E0
1.761780270E-1,-2.594316959E0,3.568093300E0,8.898437500E0,9.931966584E0
1.785477140E-1,-2.565587759E0,3.582457781E0,8.845767975E0,9.882502485E0
1.809165680E-1,-2.520100117E0,3.587245941E0,8.797885895E0,9.829650770E0
1.832854750E-1,-2.529676199E0,3.587245941E0,8.773944855E0,9.810693320E0
1.856552140E-1,-2.512917519E0,3.611186981E0,8.747610092E0,9.791634603E0
1.880248500E-1,-2.488976717E0,3.673433542E0,8.738032341E0,9.800118789E0
1.903937560E-1,-2.477006197E0,3.678221703E0,8.742821693E0,9.803152848E0
1.927626620E-1,-2.486582518E0,3.683010101E0,8.694939613E0,9.764713560E0
1.951324020E-1,-2.448276997E0,3.692586184E0,8.718880653E0,9.779986341E0
1.975020370E-1,-2.383636236E0,3.690192223E0,8.687756538E0,9.735314788E0
1.998709430E-1,-2.333360195E0,3.666251183E0,8.680574417E0,9.707643367E0
2.022398500E-1,-2.292660475E0,3.625551462E0,8.678180695E0,9.680482200E0
2.046095370E-1,-2.235202312E0,3.606398821E0,8.637480736E0,9.623321427E0
2.069792250E-1,-2.182532072E0,3.582457781E0,8.635087013E0,9.600113422E0
2.093481310E-1,-2.134649992E0,3.563304901E0,8.627904892E0,9.575730533E0
2.117170370E-1,-2.105920792E0,3.536969662E0,8.647057533E0,9.576881578E0
2.140867250E-1,-2.058038712E0,3.503452539E0,8.637480736E0,9.545458422E0
2.164564120E-1,-2.038886070E0,3.498664141E0,8.673392296E0,9.572117900E0
2.188253180E-1,-2.046068192E0,3.479511499E0,8.649451256E0,9.544967383E0
2.211942250E-1,-2.036492109E0,3.505846500E0,8.647057533E0,9.550385530E0
2.235639120E-1,-2.043674231E0,3.513028860E0,8.659028053E0,9.565392985E0
2.259336000E-1,-2.058038712E0,3.493875980E0,8.675786972E0,9.576636794E0
2.283024540E-1,-2.070009232E0,3.508240700E0,8.718880653E0,9.623490576E0
2.306713600E-1,-2.077191830E0,3.508240700E0,8.773944855E0,9.674946357E0
2.330411000E-1,-2.086768150E0,3.484299660E0,8.776338577E0,9.670525542E0
2.354107870E-1,-2.072403431E0,3.460358858E0,8.831402779E0,9.708893575E0
2.377796410E-1,-2.084373951E0,3.438811779E0,8.881678581E0,9.749577203E0
2.401485480E-1,-2.101132870E0,3.398112297E0,8.915196419E0,9.769475611E0
2.425182870E-1,-2.110708952E0,3.362200737E0,8.953501701E0,9.794114498E0
2.448879750E-1,-2.108314991E0,3.343047857E0,9.013354301E0,9.841824874E0
2.472568290E-1,-2.115497351E0,3.316712856E0,9.022931099E0,9.843231117E0
2.496257350E-1,-2.149014473E0,3.331077337E0,9.068418503E0,9.896997200E0
2.519954750E-1,-2.182532072E0,3.333471537E0,9.101935387E0,9.935829433E0
2.543651100E-1,-2.206473112E0,3.343047857E0,9.123482704E0,9.964056866E0
2.567340160E-1,-2.237596273E0,3.378959179E0,9.149817467E0,1.000716553E1
2.591029230E-1,-2.271113873E0,3.405294418E0,9.171364784E0,1.004330226E1
2.614726620E-1,-2.268719435E0,3.429235458E0,9.168971062E0,1.004872002E1
2.638422980E-1,-2.299842834E0,3.448388338E0,9.178547859E0,1.007106747E1
2.662112040E-1,-2.338148594E0,3.505846500E0,9.164182663E0,1.008663187E1
2.685801100E-1,-2.321389675E0,3.524999142E0,9.180941582E0,1.010466018E1
2.709497980E-1,-2.340542555E0,3.527393579E0,9.214458466E0,1.014035945E1
2.733194850E-1,-2.335754395E0,3.541758060E0,9.231217384E0,1.015948685E1
2.756883910E-1,-2.347724676E0,3.560910702E0,9.264734268E0,1.019937239E1
2.780572980E-1,-2.297448874E0,3.544152260E0,9.274312019E0,1.019078751E1
2.804269850E-1,-2.287872314E0,3.517817020E0,9.288675308E0,1.019258972E1
2.827966730E-1,-2.249566793E0,3.479511499E0,9.300646782E0,1.018182604E1
2.851655790E-1,-2.218443632E0,3.450782299E0,9.322194099E0,1.018492481E1
2.875344850E-1,-2.204078913E0,3.453176498E0,9.288675308E0,1.015193975E1
2.899041730E-1,-2.204078913E0,3.448388338E0,9.326981544E0,1.018537828E1
2.922738600E-1,-2.180138111E0,3.455570459E0,9.336557388E0,1.019143136E1
2.946427660E-1,-2.220837593E0,3.491482019E0,9.362893105E0,1.023651960E1
2.970116730E-1,-2.211261272E0,3.491482019E0,9.367680550E0,1.023882620E1
2.993813600E-1,-2.208867073E0,3.527393579E0,9.338952065E0,1.022436428E1
3.017510480E-1,-2.194502592E0,3.536969662E0,9.312616348E0,1.020053034E1
3.041199540E-1,-2.192108631E0,3.572881222E0,9.291069984E0,1.019287996E1
3.064888600E-1,-2.153802872E0,3.568093300E0,9.250370979E0,1.014591149E1
3.088585480E-1,-2.125073433E0,3.568093300E0,9.200093269E0,1.009400530E1
3.112282350E-1,-2.115497351E0,3.577669621E0,9.166576385E0,1.006484831E1
3.135971410E-1,-2.103526831E0,3.563304901E0,9.140241623E0,1.003324394E1
3.159660480E-1,-2.108314991E0,3.563304901E0,9.104331017E0,1.000154874E1
3.183357350E-1,-2.079585791E0,3.536969662E0,9.054053307E0,9.940357777E0
3.207054230E-1,-2.077191830E0,3.539364100E0,9.008566856E0,9.899298002E0
3.230742770E-1,-2.084373951E0,3.544152260E0,8.951107979E0,9.850277359E0
3.254431830E-1,-2.065221310E0,3.551334620E0,8.929560661E0,9.829250747E0
3.278129230E-1,-2.077191830E0,3.558516741E0,8.888861656E0,9.797429706E0
3.301826100E-1,-2.072403431E0,3.539364100E0,8.884072304E0,9.785126208E0
3.325514640E-1,-2.108314991E0,3.544152260E0,8.862526894E0,9.774987994E0
3.349203700E-1,-2.125073433E0,3.536969662E0,8.872102737E0,9.784697158E0
3.372901100E-1,-2.134649992E0,3.536969662E0,8.900832176E0,9.812833353E0
3.396597980E-1,-2.129861832E0,3.532181740E0,8.874496460E0,9.786179371E0
3.420286520E-1,-2.151408672E0,3.541758060E0,8.862526894E0,9.783506139E0
3.443975580E-1,-2.158591032E0,3.532181740E0,8.840979576E0,9.762107506E0
3.467672980E-1,-2.175349712E0,3.536969662E0,8.817038536E0,9.745894998E0
3.491369330E-1,-2.187320232E0,3.532181740E0,8.843373299E0,9.770666760E0
3.515058390E-1,-2.177743673E0,3.524999142E0,8.855343819E0,9.776773527E0
3.538747450E-1,-2.194502592E0,3.520211220E0,8.833796501E0,9.759287335E0
3.562444850E-1,-2.194502592E0,3.517817020E0,8.836191177E0,9.760591823E0
3.586141200E-1,-2.163379192E0,3.484299660E0,8.821826935E0,9.728575647E0
3.609830270E-1,-2.156197071E0,3.481905460E0,8.814644814E0,9.719609798E0
3.633519330E-1,-2.110708952E0,3.462752819E0,8.795492172E0,9.685372059E0
3.657216200E-1,-2.089162350E0,3.436417818E0,8.793097496E0,9.669132863E0
3.680913080E-1,-2.077191830E0,3.429235458E0,8.723669052E0,9.600874099E0
3.704602140E-1,-2.084373951E0,3.407688618E0,8.757185936E0,9.625240880E0
3.728291200E-1,-2.079585791E0,3.412476778E0,8.745215416E0,9.615012610E0
3.751988080E-1,-2.072403431E0,3.412476778E0,8.750003815E0,9.617817866E0
3.775684950E-1,-2.089162350E0,3.419658899E0,8.747610092E0,9.621816286E0
3.799374020E-1,-2.086768150E0,3.424447298E0,8.759579659E0,9.633881689E0
3.823063080E-1,-2.062827110E0,3.424447298E0,8.745215416E0,9.615658462E0
3.846759950E-1,-2.079585791E0,3.414870739E0,8.754791260E0,9.624572158E0
3.870456830E-1,-2.055644751E0,3.417264938E0,8.761973381E0,9.626814246E0
3.894145890E-1,-2.062827110E0,3.405294418E0,8.778732300E0,9.639368577E0
3.917834950E-1,-2.065221310E0,3.402900219E0,8.750003815E0,9.612878638E0
3.941531830E-1,-2.050856590E0,3.400506258E0,8.752397537E0,9.611135116E0
3.965228700E-1,-2.053250790E0,3.414870739E0,8.735638618E0,9.601487543E0
3.988917770E-1,-2.031703711E0,3.410082817E0,8.716486931E0,9.577767444E0
4.012606830E-1,-2.065221310E0,3.414870739E0,8.687756538E0,9.560522731E0
4.036303700E-1,-2.079585791E0,3.402900219E0,8.702121735E0,9.572425484E0
4.060000580E-1,-2.096344471E0,3.388535738E0,8.709303856E0,9.577515766E0
4.083689640E-1,-2.098738432E0,3.426841259E0,8.711697578E0,9.593832327E0
4.107378700E-1,-2.139438391E0,3.443599939E0,8.718880653E0,9.615324072E0
4.131075580E-1,-2.168167591E0,3.431629419E0,8.742821693E0,9.639188884E0
4.154772450E-1,-2.175349712E0,3.434023619E0,8.752397537E0,9.650343374E0
4.178461520E-1,-2.204078913E0,3.436417818E0,8.738032341E0,9.644694939E0
4.202150580E-1,-2.192108631E0,3.419658899E0,8.781126976E0,9.675101974E0
4.225847450E-1,-2.199290752E0,3.426841259E0,8.764369011E0,9.664071864E0
4.249544330E-1,-2.184926033E0,3.426841259E0,8.761973381E0,9.658639672E0
4.273232870E-1,-2.196896553E0,3.395718098E0,8.776338577E0,9.663403887E0
4.296921930E-1,-2.211261272E0,3.400506258E0,8.800279617E0,9.690100132E0
4.320619330E-1,-2.208867073E0,3.407688618E0,8.805068016E0,9.696425023E0
4.344316200E-1,-2.249566793E0,3.424447298E0,8.826614380E0,9.731213258E0
4.368004750E-1,-2.251960754E0,3.405294418E0,8.874496460E0,9.768523160E0
4.391693810E-1,-2.283084393E0,3.412476778E0,8.903225899E0,9.804330855E0
4.415391200E-1,-2.307025194E0,3.450782299E0,8.910408974E0,9.829834780E0
4.439088080E-1,-2.311813354E0,3.445993900E0,8.931954384E0,9.848815363E0
4.462776620E-1,-2.297448874E0,3.441205978E0,8.979836464E0,9.887245968E0
4.486465680E-1,-2.302237034E0,3.465147018E0,8.987019539E0,9.903234795E0
4.510163080E-1,-2.304630995E0,3.438811779E0,9.010960579E0,9.916358254E0
4.533859950E-1,-2.302237034E0,3.426841259E0,9.042083740E0,9.939960500E0
4.557548500E-1,-2.283084393E0,3.426841259E0,9.085177422E0,9.974776395E0
4.581237560E-1,-2.268719435E0,3.422053099E0,9.087572098E0,9.972035997E0
4.604934950E-1,-2.247172832E0,3.422053099E0,9.099541664E0,9.978070537E0
4.628631830E-1,-2.247172832E0,3.414870739E0,9.097147942E0,9.973426120E0
4.652320370E-1,-2.232808113E0,3.398112297E0,9.125876427E0,9.990706672E0
4.676009430E-1,-2.225625753E0,3.400506258E0,9.125876427E0,9.989918586E0
4.699706830E-1,-2.187320232E0,3.410082817E0,9.142635345E0,1.000004078E1
4.723403180E-1,-2.177743673E0,3.393323898E0,9.142635345E0,9.992246777E0
4.747092250E-1,-2.172955513E0,3.402900219E0,9.145030022E0,9.996651422E0
4.770781310E-1,-2.177743673E0,3.410082817E0,9.128272057E0,9.984817628E0
4.794478700E-1,-2.163379192E0,3.429235458E0,9.118694305E0,9.979501550E0
4.818175060E-1,-2.158591032E0,3.431629419E0,9.113906860E0,9.974913231E0
4.841864120E-1,-2.156197071E0,3.462752819E0,9.101935387E0,9.974220304E0
4.865553180E-1,-2.149014473E0,3.455570459E0,9.094753265E0,9.963622201E0
4.889250580E-1,-2.132256031E0,3.455570459E0,9.109118462E0,9.973140034E0
4.912946930E-1,-2.101132870E0,3.460358858E0,9.106724739E0,9.966006133E0
4.936636000E-1,-2.055644751E0,3.445993900E0,9.116300583E0,9.960295458E0
4.960325060E-1,-2.029309750E0,3.434023619E0,9.097147942E0,9.933212821E0
4.984022450E-1,-2.000580549E0,3.429235458E0,9.073206902E0,9.903790277E0
5.007718810E-1,-1.988610029E0,3.436417818E0,9.075600624E0,9.906061980E0
5.031407870E-1,-1.952698469E0,3.434023619E0,9.063631058E0,9.887110674E0
5.055096930E-1,-1.959880829E0,3.422053099E0,9.070813179E0,9.890967192E0
5.078794330E-1,-1.940727949E0,3.448388338E0,9.030112267E0,9.859043293E0
5.102490680E-1,-1.955092430E0,3.448388338E0,9.039690018E0,9.870651658E0
5.126179750E-1,-1.952698469E0,3.479511499E0,9.049265862E0,9.889855622E0
5.149868810E-1,-1.974245548E0,3.474723339E0,9.077994347E0,9.918736267E0
5.173566200E-1,-1.979033470E0,3.486693859E0,9.075600624E0,9.921700168E0
5.197262560E-1,-1.969457388E0,3.496270180E0,9.051659584E0,9.901273090E0
5.220951620E-1,-1.983821869E0,3.517817020E0,9.101935387E0,9.957701220E0
5.244640680E-1,-2.000580549E0,3.513028860E0,9.113906860E0,9.970305540E0
5.268338080E-1,-1.995792389E0,3.520211220E0,9.118694305E0,9.976254815E0
5.292034430E-1,-1.976639509E0,3.501058578E0,9.104331017E0,9.952555359E0
5.315723500E-1,-1.983821869E0,3.493875980E0,9.106724739E0,9.953650288E0
5.339412560E-1,-1.986216068E0,3.501058578E0,9.085177422E0,9.936946927E0
5.363109430E-1,-2.005368710E0,3.513028860E0,9.097147942E0,9.955951793E0
5.386806310E-1,-1.993398190E0,3.505846500E0,9.085177422E0,9.940072676E0
5.410495370E-1,-2.007762671E0,3.489088058E0,9.068418503E0,9.921746850E0
5.434184430E-1,-2.017339230E0,3.498664141E0,9.085177422E0,9.942371805E0
5.457881310E-1,-2.043674231E0,3.503452539E0,9.087572098E0,9.951620506E0
5.481578180E-1,-2.038886070E0,3.510634661E0,9.080389977E0,9.946612200E0
5.505267250E-1,-2.046068192E0,3.491482019E0,9.094753265E0,9.954465264E0
5.528956310E-1,-2.043674231E0,3.484299660E0,9.085177422E0,9.942705731E0
5.552653180E-1,-2.029309750E0,3.479511499E0,9.099541664E0,9.951218862E0
5.576350060E-1,-2.036492109E0,3.462752819E0,9.097147942E0,9.944649711E0
5.600039120E-1,-2.002974510E0,3.469934940E0,9.089965820E0,9.933772395E0
5.623728180E-1,-2.002974510E0,3.460358858E0,9.089965820E0,9.930431457E0
5.647425060E-1,-1.976639509E0,3.457964420E0,9.070813179E0,9.906779164E0
5.671121930E-1,-1.979033470E0,3.434023619E0,9.075600624E0,9.903313505E0
5.694811000E-1,-1.962275028E0,3.419658899E0,9.061236382E0,9.881831563E0
5.718500060E-1,-1.976639509E0,3.417264938E0,9.068418503E0,9.890450826E0
5.742196930E-1,-1.976639509E0,3.419658899E0,9.051659584E0,9.875915753E0
5.765893810E-1,-1.964668989E0,3.412476778E0,9.058842659E0,9.877628881E0
5.789582870E-1,-1.983821869E0,3.419658899E0,9.075600624E0,9.899300121E0
5.813271930E-1,-1.976639509E0,3.438811779E0,9.051659584E0,9.882564011E0
5.836968810E-1,-1.979033470E0,3.436417818E0,9.058842659E0,9.888790180E0
5.860665680E-1,-1.974245548E0,3.414870739E0,9.051659584E0,9.873779868E0
5.884354750E-1,-1.981427670E0,3.405294418E0,9.032507896E0,9.854353585E0
5.908043810E-1,-1.962275028E0,3.402900219E0,9.022931099E0,9.840911482E0
5.931740680E-1,-1.943122149E0,3.400506258E0,9.018142700E0,9.831890167E0
5.955437560E-1,-1.938333988E0,3.369383097E0,8.989413261E0,9.793846634E0
5.979126620E-1,-1.914392948E0,3.352624178E0,8.953501701E0,9.750393938E0
6.002815680E-1,-1.928757429E0,3.350230217E0,8.963078499E0,9.761194799E0
6.026512560E-1,-1.940727949E0,3.398112297E0,8.941532135E0,9.760358040E0
6.050209430E-1,-1.967062950E0,3.407688618E0,8.934350014E0,9.762391538E0
6.073898500E-1,-1.986216068E0,3.407688618E0,8.905619621E0,9.739992650E0
6.097587560E-1,-1.993398190E0,3.400506258E0,8.924772263E0,9.756466527E0
6.121284430E-1,-2.029309750E0,3.417264938E0,8.910408974E0,9.756597040E0
6.144981310E-1,-2.031703711E0,3.429235458E0,8.919984818E0,9.770036077E0
6.168670370E-1,-2.041280270E0,3.419658899E0,8.915196419E0,9.764303319E0
6.192359430E-1,-2.058038712E0,3.422053099E0,8.898437500E0,9.753366634E0
6.216056310E-1,-2.067615271E0,3.417264938E0,8.908013344E0,9.762450220E0
6.239753180E-1,-2.081979752E0,3.431629419E0,8.881678581E0,9.746534491E0
6.263442250E-1,-2.084373951E0,3.429235458E0,8.888861656E0,9.752749978E0
6.287131310E-1,-2.120285511E0,3.414870739E0,8.915196419E0,9.779451927E0
6.310828180E-1,-2.113103390E0,3.441205978E0,8.874496460E0,9.750066253E0
6.334525060E-1,-2.096344471E0,3.445993900E0,8.874496460E0,9.748139388E0
6.358214120E-1,-2.098738432E0,3.438811779E0,8.852950096E0,9.726502705E0
6.381903180E-1,-2.103526831E0,3.453176498E0,8.838585854E0,9.719560327E0
6.405600060E-1,-2.058038712E0,3.450782299E0,8.826614380E0,9.698069046E0
6.429296930E-1,-2.048462629E0,3.453176498E0,8.845767975E0,9.714331585E0
6.452986000E-1,-2.010157108E0,3.450782299E0,8.838585854E0,9.698929321E0
6.476675060E-1,-2.005368710E0,3.431629419E0,8.864920616E0,9.715163491E0
6.500371930E-1,-1.952698469E0,3.431629419E0,8.843373299E0,9.684748994E0
6.524068810E-1,-1.938333988E0,3.424447298E0,8.845767975E0,9.681507579E0
6.547757870E-1,-1.907210827E0,3.407688618E0,8.872102737E0,9.693503074E0
6.571446930E-1,-1.892846107E0,3.414870739E0,8.879284859E0,9.699789078E0
6.595143810E-1,-1.890452147E0,3.417264938E0,8.908013344E0,9.726469591E0
6.618840680E-1,-1.885663748E0,3.414870739E0,8.934350014E0,9.748829679E0
6.642529750E-1,-1.900028229E0,3.407688618E0,8.939137459E0,9.753493092E0
6.666218810E-1,-1.895240307E0,3.422053099E0,8.963078499E0,9.779527566E0
6.689915680E-1,-1.943122149E0,3.431629419E0,8.984625816E0,9.811998024E0
6.713612560E-1,-1.935939789E0,3.419658899E0,8.991807938E0,9.812978133E0
6.737301620E-1,-1.947910309E0,3.422053099E0,9.010960579E0,9.833728313E0
6.760990680E-1,-1.952698469E0,3.414870739E0,9.015748978E0,9.836569682E0
6.784687560E-1,-1.993398190E0,3.429235458E0,9.046872139E0,9.878217839E0
6.808384430E-1,-2.012551069E0,3.443599939E0,9.068418503E0,9.906813640E0
6.832073500E-1,-2.022127628E0,3.445993900E0,9.063631058E0,9.905214892E0
6.855762560E-1,-2.041280270E0,3.460358858E0,9.087572098E0,9.936039211E0
6.879459430E-1,-2.058038712E0,3.486693859E0,9.094753265E0,9.955254611E0
6.903156310E-1,-2.079585791E0,3.491482019E0,9.094753265E0,9.961408571E0
6.926845370E-1,-2.077191830E0,3.496270180E0,9.116300583E0,9.982262639E0
6.950534430E-1,-2.077191830E0,3.481905460E0,9.116300583E0,9.977240493E0
6.974231310E-1,-2.060433149E0,3.503452539E0,9.089965820E0,9.957260822E0
6.997928180E-1,-2.084373951E0,3.496270180E0,9.080389977E0,9.950979955E0
7.021617250E-1,-2.091556311E0,3.481905460E0,9.109118462E0,9.973680995E0
7.045306310E-1,-2.077191830E0,3.474723339E0,9.097147942E0,9.957235000E0
7.069003180E-1,-2.084373951E0,3.477117538E0,9.109118462E0,9.970506521E0
7.092700060E-1,-2.081979752E0,3.479511499E0,9.128272057E0,9.988342740E0
7.116389120E-1,-2.062827110E0,3.484299660E0,9.137847900E0,9.994791847E0
7.140078180E-1,-2.060433149E0,3.484299660E0,9.142635345E0,9.998675409E0
7.163775580E-1,-2.077191830E0,3.479511499E0,9.137847900E0,9.996098760E0
7.187471930E-1,-2.055644751E0,3.489088058E0,9.171364784E0,1.002563429E1
7.211161000E-1,-2.058038712E0,3.477117538E0,9.185729980E0,1.003511360E1
7.234850060E-1,-2.048462629E0,3.491482019E0,9.190517426E0,1.004252241E1
7.258546930E-1,-2.048462629E0,3.489088058E0,9.164182663E0,1.001759345E1
7.282243810E-1,-2.043674231E0,3.498664141E0,9.164182663E0,1.001995504E1
7.305932870E-1,-2.029309750E0,3.496270180E0,9.171364784E0,1.002277084E1
7.329621930E-1,-2.019733191E0,3.481905460E0,9.168971062E0,1.001364160E1
7.353318810E-1,-2.007762671E0,3.481905460E0,9.164182663E0,1.000684868E1
7.377015680E-1,-2.005368710E0,3.496270180E0,9.180941582E0,1.002671916E1
7.400704750E-1,-1.964668989E0,3.493875980E0,9.159394264E0,9.998079660E0
7.424393810E-1,-1.964668989E0,3.527393579E0,9.180941582E0,1.002956221E1
7.448091200E-1,-1.962275028E0,3.515423059E0,9.166576385E0,1.001173537E1
7.471787560E-1,-1.950304508E0,3.510634661E0,9.176153183E0,1.001648794E1
7.495476620E-1,-1.945516348E0,3.517817020E0,9.142635345E0,9.987384618E0
7.519165680E-1,-1.926363468E0,3.510634661E0,9.121088982E0,9.961410349E0
7.542863080E-1,-1.902422428E0,3.484299660E0,9.099541664E0,9.927800044E0
7.566559430E-1,-1.864116669E0,3.489088058E0,9.080389977E0,9.904652874E0
7.590248500E-1,-1.854540586E0,3.486693859E0,9.042083740E0,9.866895825E0
7.613937560E-1,-1.825811386E0,3.472329140E0,9.032507896E0,9.847682761E0
7.637634950E-1,-1.852146387E0,3.462752819E0,9.039690018E0,9.855815488E0
7.661331310E-1,-1.835387707E0,3.477117538E0,9.018142700E0,9.837982119E0
7.685020370E-1,-1.832993507E0,3.465147018E0,9.008566856E0,9.824529804E0
7.708709430E-1,-1.823417187E0,3.474723339E0,8.991807938E0,9.810767682E0
7.732406830E-1,-1.799476385E0,3.474723339E0,8.984625816E0,9.799761150E0
7.756103180E-1,-1.811446667E0,3.472329140E0,8.965473175E0,9.783563662E0
7.779792250E-1,-1.777929306E0,3.462752819E0,8.929560661E0,9.741085325E0
7.803481310E-1,-1.821022987E0,3.460358858E0,8.936743736E0,9.754773024E0
7.827178700E-1,-1.818629026E0,3.450782299E0,8.905619621E0,9.722415896E0
7.850875060E-1,-1.823417187E0,3.460358858E0,8.888861656E0,9.711374527E0
7.874564120E-1,-1.813840866E0,3.445993900E0,8.869709015E0,9.686930920E0
7.898253180E-1,-1.823417187E0,3.457964420E0,8.833796501E0,9.660141241E0
7.921950580E-1,-1.873693228E0,3.455570459E0,8.829009056E0,9.664527636E0
7.945646930E-1,-1.854540586E0,3.457964420E0,8.836191177E0,9.668252854E0
7.969336000E-1,-1.883269787E0,3.457964420E0,8.805068016E0,9.645384689E0
7.993025060E-1,-1.919181347E0,3.453176498E0,8.778732300E0,9.626724560E0
8.016722450E-1,-1.923969269E0,3.455570459E0,8.788309097E0,9.637271488E0
8.040418810E-1,-1.959880829E0,3.460358858E0,8.805068016E0,9.661492590E0
8.064107870E-1,-1.979033470E0,3.455570459E0,8.793097496E0,9.652777023E0
8.087796930E-1,-1.993398190E0,3.438811779E0,8.814644814E0,9.669386019E0
8.111494330E-1,-2.005368710E0,3.438811779E0,8.845767975E0,9.700234079E0
8.135191200E-1,-2.002974510E0,3.424447298E0,8.872102737E0,9.718690918E0
8.158879750E-1,-2.012551069E0,3.419658899E0,8.862526894E0,9.710242620E0
8.182568810E-1,-2.038886070E0,3.414870739E0,8.896043777E0,9.744639217E0
8.206266200E-1,-2.046068192E0,3.407688618E0,8.919984818E0,9.765493633E0
8.229963080E-1,-2.055644751E0,3.407688618E0,8.922378540E0,9.769690674E0
8.253651620E-1,-2.084373951E0,3.407688618E0,8.946319580E0,9.797631883E0
8.277340680E-1,-2.098738432E0,3.417264938E0,8.967866898E0,9.823697845E0
8.301038080E-1,-2.086768150E0,3.395718098E0,9.006172180E0,9.848687225E0
8.324734950E-1,-2.122679472E0,3.405294418E0,8.996595383E0,9.850915018E0
8.348423500E-1,-2.129861832E0,3.412476778E0,9.018142700E0,9.874624395E0
8.372112560E-1,-2.110708952E0,3.381353617E0,9.056448936E0,9.894842692E0
8.395809950E-1,-2.134649992E0,3.383747578E0,9.030112267E0,9.876710272E0
8.419506830E-1,-2.105920792E0,3.359806538E0,9.042083740E0,9.873321666E0
8.443195370E-1,-2.127467871E0,3.362200737E0,9.027718544E0,9.865607708E0
8.466884430E-1,-2.098738432E0,3.345442057E0,9.032507896E0,9.858137981E0
8.490581830E-1,-2.079585791E0,3.345442057E0,9.013354301E0,9.836524558E0
8.514278700E-1,-2.081979752E0,3.326289177E0,8.977442741E0,9.797617953E0
8.537967250E-1,-2.065221310E0,3.350230217E0,8.984625816E0,9.808806381E0
8.561656310E-1,-2.036492109E0,3.328683138E0,8.975049019E0,9.786671366E0
8.585353700E-1,-2.038886070E0,3.362200737E0,8.991807938E0,9.813972702E0
8.609050580E-1,-2.050856590E0,3.352624178E0,8.987019539E0,9.808803282E0
8.632739640E-1,-2.036492109E0,3.362200737E0,8.989413261E0,9.811281501E0
8.656428700E-1,-2.050856590E0,3.366988659E0,9.006172180E0,9.831264554E0
8.680125580E-1,-2.055644751E0,3.412476778E0,9.030112267E0,9.869832858E0
8.703822450E-1,-2.084373951E0,3.400506258E0,9.008566856E0,9.852021842E0
8.727511520E-1,-2.060433149E0,3.414870739E0,9.006172180E0,9.849764681E0
8.751200580E-1,-2.077191830E0,3.407688618E0,8.998990059E0,9.844231290E0
8.774897450E-1,-2.079585791E0,3.424447298E0,8.984625816E0,9.837429411E0
8.798594330E-1,-2.084373951E0,3.429235458E0,8.958291054E0,9.816070966E0
8.822283390E-1,-2.103526831E0,3.412476778E0,8.967866898E0,9.823057547E0
8.845972450E-1,-2.077191830E0,3.414870739E0,8.967866898E0,9.818284206E0
8.869669330E-1,-2.108314991E0,3.419658899E0,8.958291054E0,9.817842823E0
8.893366200E-1,-2.101132870E0,3.414870739E0,8.975049019E0,9.829934201E0
8.917055270E-1,-2.113103390E0,3.434023619E0,8.965473175E0,9.830434039E0
8.940744330E-1,-2.117891312E0,3.414870739E0,8.991807938E0,9.848828141E0
8.964441200E-1,-2.139438391E0,3.422053099E0,9.001383781E0,9.864712566E0
8.988138080E-1,-2.137043953E0,3.436417818E0,8.991807938E0,9.860453046E0
9.011827140E-1,-2.132256031E0,3.438811779E0,9.001383781E0,9.868984356E0
9.035516200E-1,-2.149014473E0,3.465147018E0,9.022931099E0,9.901454069E0
9.059213080E-1,-2.122679472E0,3.455570459E0,9.034901619E0,9.903341992E0
9.082909950E-1,-2.115497351E0,3.457964420E0,9.013354301E0,9.882985517E0
9.106599020E-1,-2.108314991E0,3.457964420E0,9.015748978E0,9.883634942E0
9.130288080E-1,-2.096344471E0,3.465147018E0,9.018142700E0,9.885787868E0
9.153984950E-1,-2.084373951E0,3.450782299E0,9.018142700E0,9.878229143E0
9.177681830E-1,-2.077191830E0,3.438811779E0,9.020536423E0,9.874726817E0
9.201370890E-1,-2.074797630E0,3.457964420E0,9.020536423E0,9.880909902E0
9.225059950E-1,-2.060433149E0,3.457964420E0,9.042083740E0,9.897584607E0
9.248756830E-1,-2.048462629E0,3.460358858E0,9.070813179E0,9.922194026E0
9.272453700E-1,-2.046068192E0,3.453176498E0,9.085177422E0,9.932334658E0
9.296142770E-1,-2.017339230E0,3.460358858E0,9.092359543E0,9.935529329E0
9.319831830E-1,-2.029309750E0,3.457964420E0,9.113906860E0,9.956852628E0
9.343529230E-1,-2.005368710E0,3.467540979E0,9.140241623E0,9.979446930E0
9.367225580E-1,-2.019733191E0,3.455570459E0,9.125876427E0,9.965034366E0
9.390914640E-1,-2.024521589E0,3.448388338E0,9.130665779E0,9.967904863E0
9.414603700E-1,-2.022127628E0,3.453176498E0,9.154606819E0,9.991008662E0
9.438301100E-1,-2.019733191E0,3.441205978E0,9.154606819E0,9.986393081E0
9.461997980E-1,-2.017339230E0,3.455570459E0,9.188123703E0,1.002158879E1
9.485686520E-1,-2.010157108E0,3.477117538E0,9.161788940E0,1.000347213E1
9.509375580E-1,-2.005368710E0,3.455570459E0,9.185729980E0,1.001699087E1
9.533072980E-1,-2.014945030E0,3.484299660E0,9.195305824E0,1.003762904E1
9.556769850E-1,-2.048462629E0,3.479511499E0,9.200093269E0,1.004713470E1
9.580458390E-1,-2.007762671E0,3.489088058E0,9.178547859E0,1.002250404E1
9.604147450E-1,-2.029309750E0,3.481905460E0,9.190517426E0,1.003530639E1
9.627844850E-1,-2.005368710E0,3.450782299E0,9.168971062E0,9.999971623E0
9.651541730E-1,-1.998186588E0,3.438811779E0,9.157000542E0,9.983428019E0
9.675230270E-1,-1.981427670E0,3.441205978E0,9.147423744E0,9.972126922E0
9.698919330E-1,-1.971851349E0,3.431629419E0,9.125876427E0,9.947155310E0
9.722616730E-1,-1.945516348E0,3.417264938E0,9.116300583E0,9.928225916E0
9.746313600E-1,-1.962275028E0,3.405294418E0,9.092359543E0,9.905430602E0
9.770002140E-1,-1.923969269E0,3.393323898E0,9.089965820E0,9.891601662E0
9.793691200E-1,-1.911998749E0,3.405294418E0,9.080389977E0,9.884596674E0
9.817388600E-1,-1.907210827E0,3.407688618E0,9.044477463E0,9.851515996E0
9.841085480E-1,-1.900028229E0,3.412476778E0,9.049265862E0,9.856181698E0
9.864774540E-1,-1.871299267E0,3.405294418E0,9.020536423E0,9.821805759E0
9.888463600E-1,-1.880875587E0,3.412476778E0,9.008566856E0,9.815139711E0
9.912160480E-1,-1.885663748E0,3.398112297E0,8.996595383E0,9.800082828E0
9.935857350E-1,-1.871299267E0,3.378959179E0,8.982231140E0,9.777504914E0
9.959546410E-1,-1.883269787E0,3.393323898E0,8.963078499E0,9.767196545E0
9.983235480E-1,-1.904816628E0,3.412476778E0,8.943925858E0,9.760488404E0
1.000693235E0,-1.916787148E0,3.422053099E0,8.946319580E0,9.768375218E0
1.003062923E0,-1.900028229E0,3.424447298E0,8.931954384E0,9.752781946E0
1.005431829E0,-1.926363468E0,3.395718098E0,8.958291054E0,9.772039512E0
1.007800735E0,-1.955092430E0,3.410082817E0,8.951107979E0,9.776164139E0
1.010170423E0,-1.976639509E0,3.438811779E0,8.948713303E0,9.788360433E0
1.012540110E0,-1.971851349E0,3.460358858E0,8.917591095E0,9.766560915E0
1.014909016E0,-2.000580549E0,3.472329140E0,8.917591095E0,9.776646824E0
1.017277923E0,-2.007762671E0,3.462752819E0,8.915196419E0,9.772537808E0
1.019647610E0,-2.014945030E0,3.443599939E0,8.900832176E0,9.754137453E0
1.022017298E0,-2.019733191E0,3.453176498E0,8.898437500E0,9.756328204E0
1.024386204E0,-2.007762671E0,3.453176498E0,8.912802696E0,9.766964256E0
1.026755110E0,-2.029309750E0,3.448388338E0,8.922378540E0,9.778461996E0
1.029124798E0,-2.019733191E0,3.448388338E0,8.915196419E0,9.769924845E0
1.031494485E0,-2.007762671E0,3.450782299E0,8.924772263E0,9.777042976E0
1.033863391E0,-2.022127628E0,3.412476778E0,8.917591095E0,9.759991232E0
1.036232298E0,-2.000580549E0,3.412476778E0,8.931954384E0,9.768681048E0
1.038601985E0,-2.012551069E0,3.402900219E0,8.951107979E0,9.785316845E0
1.040971673E0,-2.010157108E0,3.405294418E0,8.963078499E0,9.796608487E0
1.043340579E0,-2.017339230E0,3.410082817E0,8.972654343E0,9.808508976E0
1.045709485E0,-2.036492109E0,3.410082817E0,9.006172180E0,9.843124619E0
1.048079225E0,-2.031703711E0,3.407688618E0,9.013354301E0,9.847878830E0
1.050448860E0,-2.026915550E0,3.414870739E0,9.049265862E0,9.882253865E0
1.052817766E0,-2.017339230E0,3.398112297E0,9.061236382E0,9.885485801E0
1.055186673E0,-2.007762671E0,3.388535738E0,9.068418503E0,9.886834657E0
1.057556412E0,-2.014945030E0,3.398112297E0,9.066024780E0,9.889387037E0
1.059926100E0,-2.022127628E0,3.395718098E0,9.068418503E0,9.892225012E0
1.062294954E0,-2.002974510E0,3.374171257E0,9.077994347E0,9.889738112E0
1.064663860E0,-2.010157108E0,3.390929699E0,9.073206902E0,9.892533513E0
1.067033600E0,-2.000580549E0,3.362200737E0,9.068418503E0,9.876382459E0
1.069403287E0,-2.007762671E0,3.366988659E0,9.094753265E0,9.903648849E0
1.071772141E0,-2.010157108E0,3.366988659E0,9.075600624E0,9.886550001E0
1.074141048E0,-1.991003990E0,3.369383097E0,9.087572098E0,9.894483613E0
1.076510787E0,-2.005368710E0,3.376565218E0,9.056448936E0,9.871269608E0
1.078880475E0,-2.014945030E0,3.383747578E0,9.063631058E0,9.882264877E0
1.081249329E0,-1.991003990E0,3.366988659E0,9.075600624E0,9.882673535E0
1.083618235E0,-1.998186588E0,3.371777058E0,9.049265862E0,9.861584193E0
1.085987975E0,-2.014945030E0,3.381353617E0,9.063631058E0,9.881445426E0
1.088357662E0,-2.005368710E0,3.395718098E0,9.066024780E0,9.886617742E0
1.090726568E0,-2.024521589E0,3.374171257E0,9.037295341E0,9.856795951E0
1.093095475E0,-2.029309750E0,3.359806538E0,9.042083740E0,9.857265158E0
1.095465162E0,-2.012551069E0,3.369383097E0,9.051659584E0,9.865882904E0
1.097834850E0,-2.024521589E0,3.378959179E0,9.037295341E0,9.858435976E0
1.100203756E0,-1.991003990E0,3.374171257E0,9.022931099E0,9.836788814E0
1.102572662E0,-1.995792389E0,3.390929699E0,8.996595383E0,9.819384908E0
1.104942350E0,-2.010157108E0,3.400506258E0,9.022931099E0,9.849744160E0
1.107312037E0,-2.012551069E0,3.410082817E0,9.034901619E0,9.864505760E0
1.109680943E0,-2.000580549E0,3.438811779E0,9.015748978E0,9.854515646E0
1.112049850E0,-2.007762671E0,3.462752819E0,9.006172180E0,9.855602740E0
1.114419537E0,-2.012551069E0,3.457964420E0,9.015748978E0,9.863650915E0
1.116789225E0,-2.024521589E0,3.469934940E0,8.998990059E0,9.854996613E0
1.119158131E0,-2.002974510E0,3.477117538E0,8.994201660E0,9.848752041E0
1.121527037E0,-2.005368710E0,3.479511499E0,8.996595383E0,9.852270419E0
1.123896725E0,-1.979033470E0,3.472329140E0,8.975049019E0,9.824721269E0
1.126266412E0,-1.964668989E0,3.467540979E0,8.975049019E0,9.820146107E0
1.128635318E0,-1.947910309E0,3.467540979E0,8.996595383E0,9.836509721E0
1.131004225E0,-1.926363468E0,3.453176498E0,9.010960579E0,9.840361512E0
1.133373964E0,-1.914392948E0,3.455570459E0,9.020536423E0,9.847636514E0
1.135743600E0,-1.900028229E0,3.445993900E0,9.042083740E0,9.861250407E0
1.138112506E0,-1.888057709E0,3.431629419E0,9.046872139E0,9.858333423E0
1.140481412E0,-1.902422428E0,3.443599939E0,9.085177422E0,9.900406073E0
1.142851152E0,-1.890452147E0,3.450782299E0,9.070813179E0,9.887434426E0
1.145220787E0,-1.895240307E0,3.453176498E0,9.094753265E0,9.911150322E0
1.147589693E0,-1.902422428E0,3.455570459E0,9.106724739E0,9.924344501E0
1.149958600E0,-1.897634268E0,3.465147018E0,9.106724739E0,9.926766601E0
1.152328339E0,-1.907210827E0,3.455570459E0,9.094753265E0,9.914280473E0
1.154698027E0,-1.878481627E0,3.474723339E0,9.097147942E0,9.917686029E0
1.157066881E0,-1.868905067E0,3.462752819E0,9.101935387E0,9.916082443E0
1.159435787E0,-1.883269787E0,3.484299660E0,9.085177422E0,9.910978660E0
1.161805527E0,-1.880875587E0,3.472329140E0,9.106724739E0,9.926086747E0
1.164175214E0,-1.883269787E0,3.453176498E0,9.087572098E0,9.902277498E0
1.166544068E0,-1.904816628E0,3.460358858E0,9.089965820E0,9.911099254E0
1.168912975E0,-1.902422428E0,3.484299660E0,9.118694305E0,9.945357764E0
1.171282714E0,-1.907210827E0,3.467540979E0,9.130665779E0,9.951399457E0
1.173652402E0,-1.888057709E0,3.462752819E0,9.111513138E0,9.928498913E0
1.176021308E0,-1.892846107E0,3.457964420E0,9.111513138E0,9.927741736E0
1.178390214E0,-1.895240307E0,3.438811779E0,9.111513138E0,9.921543929E0
1.180759902E0,-1.890452147E0,3.450782299E0,9.099541664E0,9.913796765E0
1.183129589E0,-1.911998749E0,3.457964420E0,9.097147942E0,9.918233604E0
1.185498495E0,-1.902422428E0,3.477117538E0,9.082783699E0,9.909920141E0
1.187867402E0,-1.909604788E0,3.465147018E0,9.063631058E0,9.889552177E0
1.190237089E0,-1.911998749E0,3.474723339E0,9.082783699E0,9.910923328E0
1.192606777E0,-1.907210827E0,3.477117538E0,9.046872139E0,9.877939816E0
1.194975683E0,-1.890452147E0,3.450782299E0,9.032507896E0,9.852304639E0
1.197344589E0,-1.888057709E0,3.455570459E0,9.010960579E0,9.833775453E0
1.199714277E0,-1.868905067E0,3.441205978E0,9.006172180E0,9.820684400E0
1.202083964E0,-1.859328747E0,3.457964420E0,8.994201660E0,9.813780353E0
1.204452870E0,-1.847358227E0,3.450782299E0,8.975049019E0,9.791431754E0
1.206821777E0,-1.835387707E0,3.429235458E0,8.987019539E0,9.792590263E0
1.209191464E0,-1.816235065E0,3.443599939E0,8.939137459E0,9.750141992E0
1.211561152E0,-1.799476385E0,3.426841259E0,8.967866898E0,9.767496761E0
1.213930058E0,-1.782717466E0,3.445993900E0,8.984625816E0,9.786544670E0
1.216298964E0,-1.775535345E0,3.426841259E0,8.984625816E0,9.778510512E0
1.218668652E0,-1.775535345E0,3.429235458E0,8.953501701E0,9.750762755E0
1.221038339E0,-1.763564825E0,3.441205978E0,8.963078499E0,9.761600056E0
1.223407245E0,-1.777929306E0,3.426841259E0,8.931954384E0,9.730574636E0
1.225776152E0,-1.763564825E0,3.429235458E0,8.943925858E0,9.739796018E0
1.228145891E0,-1.770746946E0,3.441205978E0,8.946319580E0,9.747516472E0
1.230515527E0,-1.777929306E0,3.422053099E0,8.946319580E0,9.742079555E0
1.232884433E0,-1.773141146E0,3.443599939E0,8.970260620E0,9.770772009E0
1.235253339E0,-1.789899826E0,3.448388338E0,8.987019539E0,9.790895961E0
1.237623079E0,-1.818629026E0,3.448388338E0,9.015748978E0,9.822551771E0
1.239992766E0,-1.823417187E0,3.453176498E0,9.001383781E0,9.811941100E0
1.242361620E0,-1.837781668E0,3.448388338E0,9.010960579E0,9.821722565E0
1.244730527E0,-1.864116669E0,3.438811779E0,9.025324821E0,9.836505759E0
1.247100266E0,-1.861722708E0,3.434023619E0,9.006172180E0,9.816805335E0
1.249469954E0,-1.876087189E0,3.417264938E0,9.020536423E0,9.826875401E0
1.251838808E0,-1.854540586E0,3.434023619E0,9.027718544E0,9.835219424E0
1.254207714E0,-1.861722708E0,3.436417818E0,9.039690018E0,9.848399590E0
1.256577454E0,-1.856934547E0,3.429235458E0,9.025324821E0,9.831802982E0
1.258947141E0,-1.854540586E0,3.402900219E0,8.987019539E0,9.787010314E0
1.261316048E0,-1.847358227E0,3.431629419E0,8.941532135E0,9.753963800E0
1.263684954E0,-1.825811386E0,3.424447298E0,8.936743736E0,9.742987998E0
1.266054641E0,-1.813840866E0,3.424447298E0,8.943925858E0,9.747341572E0
1.268424329E0,-1.806658506E0,3.407688618E0,8.953501701E0,9.748925551E0
1.270793235E0,-1.799476385E0,3.402900219E0,8.934350014E0,9.728332608E0
1.273162141E0,-1.801870346E0,3.388535738E0,8.953501701E0,9.741360475E0
1.275531829E0,-1.799476385E0,3.410082817E0,8.939137459E0,9.735243119E0
1.277901516E0,-1.816235065E0,3.386141777E0,8.975049019E0,9.763000094E0
1.280270423E0,-1.801870346E0,3.400506258E0,8.991807938E0,9.780735634E0
1.282639329E0,-1.854540586E0,3.407688618E0,9.013354301E0,9.812859841E0
1.285009016E0,-1.864116669E0,3.410082817E0,9.042083740E0,9.841893829E0
1.287378704E0,-1.868905067E0,3.402900219E0,9.063631058E0,9.860118863E0
1.289747610E0,-1.885663748E0,3.407688618E0,9.082783699E0,9.882561875E0
1.292116516E0,-1.914392948E0,3.422053099E0,9.092359543E0,9.901835680E0
1.294486204E0,-1.940727949E0,3.422053099E0,9.101935387E0,9.915750106E0
1.296855891E0,-1.998186588E0,3.424447298E0,9.125876427E0,9.949935150E0
1.299224798E0,-1.981427670E0,3.431629419E0,9.099541664E0,9.924907787E0
1.301593704E0,-2.012551069E0,3.436417818E0,9.109118462E0,9.941597878E0
1.303963391E0,-1.998186588E0,3.436417818E0,9.152213097E0,9.978212346E0
1.306333079E0,-2.031703711E0,3.453176498E0,9.161788940E0,9.999531213E0
1.308701985E0,-2.038886070E0,3.419658899E0,9.161788940E0,9.989469455E0
1.311070891E0,-2.043674231E0,3.441205978E0,9.157000542E0,9.993455952E0
1.313440631E0,-2.029309750E0,3.429235458E0,9.168971062E0,9.997388870E0
1.315810266E0,-1.979033470E0,3.417264938E0,9.171364784E0,9.985399598E0
1.318179173E0,-1.979033470E0,3.419658899E0,9.145030022E0,9.962038675E0
1.320548079E0,-1.945516348E0,3.417264938E0,9.137847900E0,9.948014765E0
1.322917818E0,-1.945516348E0,3.395718098E0,9.121088982E0,9.925230449E0
1.325287506E0,-1.938333988E0,3.417264938E0,9.099541664E0,9.911432631E0
1.327656360E0,-1.914392948E0,3.419658899E0,9.097147942E0,9.905406000E0
1.330025266E0,-1.923969269E0,3.410082817E0,9.094753265E0,9.901760426E0
1.332395006E0,-1.914392948E0,3.422053099E0,9.061236382E0,9.873264533E0
1.334764693E0,-1.919181347E0,3.431629419E0,9.080389977E0,9.895090684E0
1.337133548E0,-1.911998749E0,3.424447298E0,9.089965820E0,9.900002885E0
1.339502454E0,-1.907210827E0,3.422053099E0,9.089965820E0,9.898251318E0
1.341872193E0,-1.892846107E0,3.436417818E0,9.097147942E0,9.907064877E0
1.344241881E0,-1.885663748E0,3.436417818E0,9.094753265E0,9.903495956E0
1.346610787E0,-1.883269787E0,3.429235458E0,9.082783699E0,9.889556140E0
1.348979693E0,-1.921575308E0,3.445993900E0,9.094753265E0,9.913720925E0
1.351349381E0,-1.921575308E0,3.438811779E0,9.135454178E0,9.948587897E0
1.353719068E0,-1.916787148E0,3.443599939E0,9.147423744E0,9.960311976E0
1.356087975E0,-1.921575308E0,3.445993900E0,9.145030022E0,9.959864443E0
1.358456881E0,-1.911998749E0,3.450782299E0,9.121088982E0,9.937701037E0
1.360826568E0,-1.914392948E0,3.448388338E0,9.101935387E0,9.919753539E0
1.363196256E0,-1.919181347E0,3.448388338E0,9.077994347E0,9.898718126E0
1.365565162E0,-1.935939789E0,3.438811779E0,9.063631058E0,9.885479112E0
1.367934068E0,-1.926363468E0,3.438811779E0,9.051659584E0,9.872631052E0
1.370303756E0,-1.919181347E0,3.438811779E0,9.044477463E0,9.864646779E0
1.372673443E0,-1.911998749E0,3.402900219E0,9.049265862E0,9.855185526E0
1.375042350E0,-1.907210827E0,3.402900219E0,9.051659584E0,9.856455969E0
1.377411256E0,-1.911998749E0,3.426841259E0,9.070813179E0,9.883250071E0
1.379780943E0,-1.890452147E0,3.419658899E0,9.087572098E0,9.892009045E0
1.382150631E0,-1.883269787E0,3.410082817E0,9.104331017E0,9.902737660E0
1.384519537E0,-1.876087189E0,3.412476778E0,9.128272057E0,9.924215417E0
1.386888443E0,-1.876087189E0,3.414870739E0,9.145030022E0,9.940453682E0
1.389258131E0,-1.852146387E0,3.424447298E0,9.145030022E0,9.939258505E0
1.391627818E0,-1.830599546E0,3.410082817E0,9.133059502E0,9.919301154E0
1.393996725E0,-1.847358227E0,3.434023619E0,9.157000542E0,9.952683535E0
1.396365631E0,-1.847358227E0,3.443599939E0,9.168971062E0,9.967002724E0
1.398735370E0,-1.840175867E0,3.422053099E0,9.161788940E0,9.951636610E0
1.401105006E0,-1.844964027E0,3.434023619E0,9.137847900E0,9.934620009E0
1.403473912E0,-1.825811386E0,3.426841259E0,9.159394264E0,9.948433621E0
1.405842818E0,-1.813840866E0,3.441205978E0,9.178547859E0,9.968834339E0
1.408212558E0,-1.792294025E0,3.429235458E0,9.180941582E0,9.963014706E0
1.410582245E0,-1.782717466E0,3.405294418E0,9.166576385E0,9.939830696E0
1.412951100E0,-1.782717466E0,3.419658899E0,9.154606819E0,9.933729137E0
1.415320006E0,-1.761170626E0,3.419658899E0,9.183335304E0,9.956376664E0
1.417689745E0,-1.777929306E0,3.443599939E0,9.171364784E0,9.956572963E0
1.420059433E0,-1.746806145E0,3.443599939E0,9.157000542E0,9.937825274E0
1.422428287E0,-1.765958786E0,3.445993900E0,9.137847900E0,9.924401677E0
1.424797193E0,-1.770746946E0,3.453176498E0,9.113906860E0,9.905719102E0
1.427166933E0,-1.744411945E0,3.450782299E0,9.080389977E0,9.869364399E0
1.429536620E0,-1.737229586E0,3.450782299E0,9.058842659E0,9.848273728E0
1.431905527E0,-1.742017984E0,3.426841259E0,9.089965820E0,9.869414688E0
1.434274433E0,-1.763564825E0,3.431629419E0,9.063631058E0,9.850667455E0
1.436644120E0,-1.742017984E0,3.405294418E0,9.073206902E0,9.846509037E0
1.439013808E0,-1.753988504E0,3.424447298E0,9.068418503E0,9.850864384E0
1.441382714E0,-1.775535345E0,3.414870739E0,9.082783699E0,9.864625064E0
1.443751620E0,-1.763564825E0,3.436417818E0,9.087572098E0,9.874365546E0
1.446121308E0,-1.789899826E0,3.419658899E0,9.082783699E0,9.868878766E0
1.448490995E0,-1.775535345E0,3.429235458E0,9.099541664E0,9.885031112E0
1.450859902E0,-1.787505865E0,3.453176498E0,9.080389977E0,9.877909054E0
1.453228808E0,-1.806658506E0,3.431629419E0,9.082783699E0,9.876085011E0
1.455598495E0,-1.816235065E0,3.438811779E0,9.051659584E0,9.851734745E0
1.457968183E0,-1.794687986E0,3.453176498E0,9.061236382E0,9.861609283E0
1.460337089E0,-1.806658506E0,3.441205978E0,9.046872139E0,9.846410973E0
1.462705995E0,-1.789899826E0,3.441205978E0,9.013354301E0,9.812552967E0
1.465075683E0,-1.801870346E0,3.419658899E0,9.013354301E0,9.807209567E0
1.467445370E0,-1.801870346E0,3.419658899E0,8.989413261E0,9.785211010E0
1.469814277E0,-1.825811386E0,3.412476778E0,8.982231140E0,9.780545038E0
1.472183183E0,-1.797081947E0,3.386141777E0,8.984625816E0,9.768262933E0
1.474552870E0,-1.785111427E0,3.386141777E0,8.965473175E0,9.748450554E0
1.476922558E0,-1.801870346E0,3.371777058E0,8.955895424E0,9.737745125E0
1.479291464E0,-1.792294025E0,3.371777058E0,8.960684776E0,9.740383466E0
1.481660370E0,-1.801870346E0,3.364594698E0,8.951107979E0,9.730856503E0
1.484030110E0,-1.799476385E0,3.357412577E0,8.953501701E0,9.730135004E0
1.486399745E0,-1.813840866E0,3.371777058E0,8.955895424E0,9.739967251E0
1.488768652E0,-1.825811386E0,3.355018139E0,8.982231140E0,9.760645992E0
1.491137558E0,-1.852146387E0,3.388535738E0,9.006172180E0,9.799171293E0
1.493507298E0,-1.904816628E0,3.417264938E0,9.006172180E0,9.819224174E0
1.495876933E0,-1.907210827E0,3.412476778E0,8.991807938E0,9.804848846E0
1.498245839E0,-1.940727949E0,3.410082817E0,8.994201660E0,9.812785196E0
1.500614745E0,-1.945516348E0,3.407688618E0,9.025324821E0,9.841436059E0
1.502984485E0,-1.962275028E0,3.393323898E0,9.018142700E0,9.833212503E0
1.505354173E0,-1.971851349E0,3.390929699E0,9.037295341E0,9.851868303E0
1.507723027E0,-1.955092430E0,3.376565218E0,9.027718544E0,9.834799499E0
1.510091933E0,-1.967062950E0,3.369383097E0,9.042083740E0,9.847911325E0
1.512461673E0,-1.983821869E0,3.364594698E0,9.063631058E0,9.869420177E0
1.514831360E0,-1.969457388E0,3.362200737E0,9.089965820E0,9.889925926E0
1.517200266E0,-1.983821869E0,3.345442057E0,9.092359543E0,9.889314123E0
1.519569173E0,-2.017339230E0,3.347836018E0,9.099541664E0,9.903500496E0
1.521938860E0,-2.005368710E0,3.371777058E0,9.109118462E0,9.917984842E0
1.524308548E0,-2.005368710E0,3.381353617E0,9.125876427E0,9.936633056E0
1.526677454E0,-2.017339230E0,3.381353617E0,9.106724739E0,9.921473949E0
1.529046360E0,-1.981427670E0,3.388535738E0,9.092359543E0,9.903495954E0
1.531416048E0,-1.988610029E0,3.405294418E0,9.080389977E0,9.899701109E0
1.533785735E0,-1.969457388E0,3.400506258E0,9.097147942E0,9.909606747E0
1.536154641E0,-1.959880829E0,3.412476778E0,9.097147942E0,9.911822804E0
1.538523548E0,-1.955092430E0,3.393323898E0,9.087572098E0,9.895504036E0
1.540893235E0,-1.909604788E0,3.393323898E0,9.061236382E0,9.862415642E0
1.543262923E0,-1.885663748E0,3.395718098E0,9.099541664E0,9.893851003E0
1.545631829E0,-1.868905067E0,3.395718098E0,9.118694305E0,9.908294171E0
1.548000735E0,-1.854540586E0,3.398112297E0,9.101935387E0,9.890991647E0
1.550370423E0,-1.828205585E0,3.381353617E0,9.118694305E0,9.895780605E0
1.552740110E0,-1.818629026E0,3.398112297E0,9.111513138E0,9.893141583E0
1.555109016E0,-1.809052467E0,3.405294418E0,9.121088982E0,9.902674645E0
1.557477923E0,-1.799476385E0,3.400506258E0,9.142635345E0,9.919140040E0
1.559847610E0,-1.773141146E0,3.407688618E0,9.133059502E0,9.908034472E0
1.562217298E0,-1.775535345E0,3.417264938E0,9.140241623E0,9.918379018E0
1.564586204E0,-1.753988504E0,3.417264938E0,9.137847900E0,9.912337746E0
1.566955110E0,-1.746806145E0,3.429235458E0,9.152213097E0,9.928443589E0
1.569324798E0,-1.734835625E0,3.417264938E0,9.157000542E0,9.926631514E0
1.571694485E0,-1.751594305E0,3.412476778E0,9.168971062E0,9.938969298E0
1.574063391E0,-1.725259066E0,3.434023619E0,9.192912102E0,9.963868223E0
1.576432298E0,-1.730047464E0,3.426841259E0,9.200093269E0,9.968852562E0
1.578802037E0,-1.737229586E0,3.426841259E0,9.204882622E0,9.974521128E0
1.581171673E0,-1.739623785E0,3.438811779E0,9.157000542E0,9.934906959E0
1.583540579E0,-1.751594305E0,3.448388338E0,9.173758507E0,9.955767669E0
1.585909485E0,-1.789899826E0,3.438811779E0,9.176153183E0,9.961473539E0
1.588279225E0,-1.775535345E0,3.460358858E0,9.183335304E0,9.972976311E0
1.590648860E0,-1.773141146E0,3.460358858E0,9.168971062E0,9.959324439E0
1.593017766E0,-1.770746946E0,3.462752819E0,9.152213097E0,9.944305225E0
1.595386673E0,-1.780323505E0,3.469934940E0,9.125876427E0,9.924294475E0
1.597756412E0,-1.775535345E0,3.469934940E0,9.145030022E0,9.941053684E0
1.600126100E0,-1.799476385E0,3.469934940E0,9.137847900E0,9.938753846E0
1.602494954E0,-1.811446667E0,3.479511499E0,9.149817467E0,9.955274932E0
1.604863860E0,-1.806658506E0,3.465147018E0,9.123482704E0,9.925179871E0
1.607233600E0,-1.801870346E0,3.479511499E0,9.123482704E0,9.929333999E0
1.609603287E0,-1.794687986E0,3.481905460E0,9.094753265E0,9.902479869E0
1.611972141E0,-1.787505865E0,3.472329140E0,9.109118462E0,9.911018415E0
1.614341048E0,-1.787505865E0,3.465147018E0,9.080389977E0,9.882100141E0
1.616710787E0,-1.751594305E0,3.462752819E0,9.085177422E0,9.879230156E0
1.619080475E0,-1.753988504E0,3.448388338E0,9.077994347E0,9.868021036E0
1.621449329E0,-1.765958786E0,3.457964420E0,9.049265862E0,9.847098100E0
1.623818235E0,-1.749200106E0,3.443599939E0,9.075600624E0,9.863296013E0
1.626187975E0,-1.775535345E0,3.441205978E0,9.061236382E0,9.853954998E0
1.628557662E0,-1.758776426E0,3.431629419E0,9.037295341E0,9.825583040E0
1.630926568E0,-1.749200106E0,3.417264938E0,9.039690018E0,9.821068999E0
1.633295475E0,-1.789899826E0,3.441205978E0,9.054053307E0,9.849950317E0
1.635665162E0,-1.751594305E0,3.443599939E0,9.044477463E0,9.835092055E0
1.638034850E0,-1.751594305E0,3.426841259E0,9.037295341E0,9.822628503E0
1.640403756E0,-1.763564825E0,3.424447298E0,9.042083740E0,9.828340580E0
1.642772662E0,-1.739623785E0,3.410082817E0,9.025324821E0,9.803644418E0
1.645142350E0,-1.746806145E0,3.407688618E0,9.042083740E0,9.819518918E0
1.647512037E0,-1.765958786E0,3.395718098E0,9.046872139E0,9.823207589E0
1.649880943E0,-1.751594305E0,3.398112297E0,9.054053307E0,9.828078707E0
1.652249850E0,-1.777929306E0,3.393323898E0,9.075600624E0,9.851000273E0
1.654619537E0,-1.785111427E0,3.402900219E0,9.094753265E0,9.873241092E0
1.656989225E0,-1.789899826E0,3.405294418E0,9.113906860E0,9.892576496E0
1.659358131E0,-1.789899826E0,3.381353617E0,9.118694305E0,9.888775430E0
1.661727037E0,-1.804264545E0,3.417264938E0,9.125876427E0,9.910332525E0
1.664096725E0,-1.823417187E0,3.429235458E0,9.118694305E0,9.911361758E0
1.666466412E0,-1.825811386E0,3.393323898E0,9.164182663E0,9.941351929E0
1.668835318E0,-1.840175867E0,3.407688618E0,9.128272057E0,9.915842863E0
1.671204225E0,-1.828205585E0,3.393323898E0,9.113906860E0,9.895467700E0
1.673573912E0,-1.813840866E0,3.366988659E0,9.121088982E0,9.890444658E0
1.675943600E0,-1.809052467E0,3.376565218E0,9.125876427E0,9.897246287E0
1.678312506E0,-1.768352985E0,3.352624178E0,9.113906860E0,9.870686877E0
1.680681412E0,-1.794687986E0,3.309530497E0,9.094753265E0,9.843192268E0
1.683051100E0,-1.777929306E0,3.338259697E0,9.118694305E0,9.871960102E0
1.685420787E0,-1.751594305E0,3.307136536E0,9.106724739E0,9.845692974E0
1.687789693E0,-1.761170626E0,3.340653658E0,9.135454178E0,9.885252241E0
1.690158600E0,-1.734835625E0,3.321501017E0,9.118694305E0,9.858631218E0
1.692528339E0,-1.765958786E0,3.331077337E0,9.104331017E0,9.854112335E0
1.694897975E0,-1.777929306E0,3.347836018E0,9.073206902E0,9.833215247E0
1.697266881E0,-1.768352985E0,3.347836018E0,9.075600624E0,9.833697421E0
1.699635787E0,-1.787505865E0,3.378959179E0,9.075600624E0,9.847795136E0
1.702005527E0,-1.801870346E0,3.378959179E0,9.063631058E0,9.839385643E0
1.704375162E0,-1.816235065E0,3.395718098E0,9.066024780E0,9.849995763E0
1.706744068E0,-1.823417187E0,3.357412577E0,9.066024780E0,9.838184526E0
1.709112975E0,-1.849752188E0,3.371777058E0,9.077994347E0,9.859028605E0
1.711482714E0,-1.828205585E0,3.371777058E0,9.068418503E0,9.846188620E0
1.713852402E0,-1.830599546E0,3.366988659E0,9.080389977E0,9.856023004E0
1.716221256E0,-1.871299267E0,3.381353617E0,9.161788940E0,9.943525020E0
1.718590162E0,-1.890452147E0,3.383747578E0,9.176153183E0,9.961191908E0
1.720959902E0,-1.864116669E0,3.395718098E0,9.140241623E0,9.927227673E0
1.723329589E0,-1.866511106E0,3.395718098E0,9.080389977E0,9.872600834E0
1.725698443E0,-1.847358227E0,3.376565218E0,9.077994347E0,9.860218377E0
1.728067350E0,-1.859328747E0,3.390929699E0,9.106724739E0,9.893833589E0
1.730437089E0,-1.859328747E0,3.390929699E0,9.130665779E0,9.915874403E0
1.732806777E0,-1.883269787E0,3.388535738E0,9.154606819E0,9.941614836E0
1.735175631E0,-1.909604788E0,3.402900219E0,9.168971062E0,9.964755425E0
1.737544537E0,-1.909604788E0,3.398112297E0,9.173758507E0,9.967527415E0
1.739914277E0,-1.952698469E0,3.395718098E0,9.164182663E0,9.966251883E0
1.742283964E0,-1.928757429E0,3.383747578E0,9.159394264E0,9.953107865E0
1.744652870E0,-1.928757429E0,3.390929699E0,9.176153183E0,9.970972705E0
1.747021777E0,-1.947910309E0,3.390929699E0,9.185729980E0,9.983506101E0
1.749391464E0,-1.888057709E0,3.388535738E0,9.176153183E0,9.962365362E0
1.751761152E0,-1.888057709E0,3.376565218E0,9.200093269E0,9.980364259E0
1.754130058E0,-1.878481627E0,3.383747578E0,9.183335304E0,9.965545053E0
1.756498964E0,-1.873693228E0,3.383747578E0,9.159394264E0,9.942584034E0
1.758868652E0,-1.847358227E0,3.386141777E0,9.121088982E0,9.903178922E0
1.761238339E0,-1.856934547E0,3.374171257E0,9.113906860E0,9.894267828E0
1.763607245E0,-1.842570066E0,3.393323898E0,9.080389977E0,9.867278939E0
1.765976152E0,-1.859328747E0,3.388535738E0,9.075600624E0,9.864370458E0
1.768345839E0,-1.832993507E0,3.395718098E0,9.073206902E0,9.859708417E0
1.770715527E0,-1.854540586E0,3.383747578E0,9.044477463E0,9.833190786E0
1.773084433E0,-1.832993507E0,3.398112297E0,9.030112267E0,9.820894049E0
1.775453339E0,-1.825811386E0,3.395718098E0,9.015748978E0,9.805519785E0
1.777823027E0,-1.832993507E0,3.378959179E0,9.030112267E0,9.814283360E0
1.780192714E0,-1.847358227E0,3.374171257E0,9.044477463E0,9.828547027E0
1.782561620E0,-1.816235065E0,3.376565218E0,9.032507896E0,9.812548160E0
1.784930527E0,-1.792294025E0,3.371777058E0,9.008566856E0,9.784450685E0
1.787300214E0,-1.804264545E0,3.364594698E0,8.972654343E0,9.751122704E0
1.789669902E0,-1.768352985E0,3.364594698E0,8.979836464E0,9.751155454E0
1.792038808E0,-1.789899826E0,3.371777058E0,8.989413261E0,9.766379713E0
1.794407714E0,-1.813840866E0,3.400506258E0,8.987019539E0,9.778547013E0
1.796777402E0,-1.816235065E0,3.422053099E0,9.010960579E0,9.808494674E0
1.799147089E0,-1.825811386E0,3.448388338E0,9.010960579E0,9.819489798E0
1.801515995E0,-1.832993507E0,3.431629419E0,8.996595383E0,9.801768930E0
1.803884902E0,-1.832993507E0,3.426841259E0,9.025324821E0,9.826474156E0
1.806254589E0,-1.828205585E0,3.436417818E0,8.989413261E0,9.795961100E0
1.808624277E0,-1.811446667E0,3.414870739E0,8.970260620E0,9.767715024E0
1.810993183E0,-1.797081947E0,3.438811779E0,9.001383781E0,9.802032440E0
1.813362089E0,-1.787505865E0,3.436417818E0,9.010960579E0,9.808239148E0
1.815731777E0,-1.789899826E0,3.445993900E0,9.037295341E0,9.836225010E0
1.818101464E0,-1.789899826E0,3.431629419E0,9.056448936E0,9.848811563E0
1.820470370E0,-1.768352985E0,3.422053099E0,9.068418503E0,9.852600359E0
1.822839277E0,-1.789899826E0,3.434023619E0,9.075600624E0,9.867258296E0
1.825209016E0,-1.792294025E0,3.434023619E0,9.104331017E0,9.894123475E0
1.827578652E0,-1.789899826E0,3.445993900E0,9.101935387E0,9.895647686E0
1.829947558E0,-1.797081947E0,3.429235458E0,9.125876427E0,9.913161953E0
1.832316464E0,-1.789899826E0,3.438811779E0,9.149817467E0,9.937219305E0
1.834686204E0,-1.792294025E0,3.438811779E0,9.183335304E0,9.968520032E0
1.837055839E0,-1.799476385E0,3.434023619E0,9.192912102E0,9.976986839E0
1.839424745E0,-1.811446667E0,3.429235458E0,9.214458466E0,9.997361635E0
1.841793652E0,-1.792294025E0,3.414870739E0,9.216853142E0,9.991198220E0
1.844163391E0,-1.780323505E0,3.386141777E0,9.216853142E0,9.979273007E0
1.846533027E0,-1.797081947E0,3.395718098E0,9.209671021E0,9.978900001E0
1.848901933E0,-1.789899826E0,3.378959179E0,9.214458466E0,9.976339576E0
1.851270839E0,-1.761170626E0,3.388535738E0,9.207276344E0,9.967839992E0
1.853640579E0,-1.785111427E0,3.357412577E0,9.204882622E0,9.959352695E0
1.856010266E0,-1.751594305E0,3.347836018E0,9.204882622E0,9.950173501E0
1.858379120E0,-1.761170626E0,3.335865498E0,9.197699547E0,9.941196987E0
1.860748027E0,-1.753988504E0,3.335865498E0,9.216853142E0,9.957653144E0
1.863117766E0,-1.742017984E0,3.328683138E0,9.200093269E0,9.937629207E0
1.865487454E0,-1.732441425E0,3.345442057E0,9.219246864E0,9.959309644E0
1.867856308E0,-1.751594305E0,3.335865498E0,9.219246864E0,9.959447473E0
1.870225214E0,-1.787505865E0,3.347836018E0,9.195305824E0,9.947704882E0
1.872594954E0,-1.785111427E0,3.376565218E0,9.214458466E0,9.974670937E0
1.874964641E0,-1.806658506E0,3.371777058E0,9.209671021E0,9.972509002E0
1.877333495E0,-1.813840866E0,3.371777058E0,9.192912102E0,9.958339828E0
1.879702402E0,-1.830599546E0,3.383747578E0,9.200093269E0,9.972088975E0
1.882072141E0,-1.866511106E0,3.383747578E0,9.190517426E0,9.969915844E0
1.884441829E0,-1.880875587E0,3.393323898E0,9.149817467E0,9.938385167E0
1.886810683E0,-1.904816628E0,3.369383097E0,9.149817467E0,9.934798866E0
1.889179589E0,-1.883269787E0,3.393323898E0,9.135454178E0,9.925617120E0
1.891549329E0,-1.878481627E0,3.378959179E0,9.094753265E0,9.882337543E0
1.893919016E0,-1.859328747E0,3.357412577E0,9.042083740E0,9.822861139E0
1.896287870E0,-1.864116669E0,3.352624178E0,9.020536423E0,9.802300607E0
1.898656777E0,-1.861722708E0,3.321501017E0,8.972654343E0,9.747148629E0
1.901026516E0,-1.835387707E0,3.331077337E0,8.924772263E0,9.701354761E0
1.903396204E0,-1.821022987E0,3.316712856E0,8.908013344E0,9.678295853E0
1.905765058E0,-1.794687986E0,3.311924458E0,8.896043777E0,9.660711334E0
1.908133964E0,-1.799476385E0,3.319107056E0,8.867314339E0,9.637626808E0
1.910503704E0,-1.813840866E0,3.319107056E0,8.869709015E0,9.642521887E0
1.912873391E0,-1.813840866E0,3.304742336E0,8.888861656E0,9.655216318E0
1.915242245E0,-1.797081947E0,3.345442057E0,8.850555420E0,9.630878326E0
1.917611152E0,-1.794687986E0,3.355018139E0,8.879284859E0,9.660163108E0
1.919980891E0,-1.809052467E0,3.343047857E0,8.905619621E0,9.682907654E0
1.922350579E0,-1.821022987E0,3.364594698E0,8.884072304E0,9.672815666E0
1.924719485E0,-1.792294025E0,3.376565218E0,8.915196419E0,9.700218437E0
1.927088391E0,-1.818629026E0,3.355018139E0,8.941532135E0,9.721859656E0
1.929458079E0,-1.823417187E0,3.366988659E0,8.943925858E0,9.729094131E0
1.931827766E0,-1.854540586E0,3.366988659E0,8.965473175E0,9.754775378E0
1.934196673E0,-1.847358227E0,3.383747578E0,9.001383781E0,9.792210683E0
1.936565579E0,-1.868905067E0,3.374171257E0,8.996595383E0,9.788593684E0
1.938935266E0,-1.852146387E0,3.410082817E0,9.001383781E0,9.802245714E0
1.941304954E0,-1.859328747E0,3.400506258E0,9.025324821E0,9.822272361E0
1.943673860E0,-1.859328747E0,3.393323898E0,9.015748978E0,9.810987723E0
1.946042766E0,-1.861722708E0,3.410082817E0,9.042083740E0,9.841440678E0
1.948412454E0,-1.876087189E0,3.393323898E0,9.073206902E0,9.866987063E0
1.950782141E0,-1.883269787E0,3.414870739E0,9.089965820E0,9.891184250E0
1.953151048E0,-1.868905067E0,3.407688618E0,9.142635345E0,9.934431485E0
1.955519954E0,-1.880875587E0,3.393323898E0,9.168971062E0,9.956021815E0
1.957889641E0,-1.871299267E0,3.390929699E0,9.171364784E0,9.955606319E0
1.960259329E0,-1.885663748E0,3.395718098E0,9.166576385E0,9.955538750E0
1.962628235E0,-1.876087189E0,3.422053099E0,9.188123703E0,9.982573202E0
1.964997141E0,-1.854540586E0,3.390929699E0,9.200093269E0,9.978949903E0
1.967366829E0,-1.859328747E0,3.410082817E0,9.190517426E0,9.977543724E0
1.969736516E0,-1.849752188E0,3.422053099E0,9.185729980E0,9.975453165E0
1.972105423E0,-1.830599546E0,3.410082817E0,9.178547859E0,9.961199743E0
1.974474329E0,-1.840175867E0,3.426841259E0,9.202488899E0,9.990760240E0
1.976844016E0,-1.825811386E0,3.419658899E0,9.200093269E0,9.983454831E0
1.979213704E0,-1.809052467E0,3.412476778E0,9.207276344E0,9.984568407E0
1.981582610E0,-1.816235065E0,3.424447298E0,9.209671021E0,9.992176410E0
1.983951516E0,-1.794687986E0,3.417264938E0,9.190517426E0,9.968160070E0
1.986321204E0,-1.787505865E0,3.414870739E0,9.226429939E0,9.999176406E0
1.988690891E0,-1.801870346E0,3.426841259E0,9.224034309E0,1.000363867E1
1.991059798E0,-1.782717466E0,3.431629419E0,9.214458466E0,9.993017905E0
1.993428704E0,-1.789899826E0,3.407688618E0,9.226429939E0,9.997154221E0
1.995798391E0,-1.782717466E0,3.419658899E0,9.240794182E0,1.001321255E1
1.998168079E0,-1.768352985E0,3.412476778E0,9.264734268E0,1.003032258E1
2.000536985E0,-1.770746946E0,3.414870739E0,9.252764702E0,1.002050605E1
2.002905891E0,-1.746806145E0,3.422053099E0,9.259946823E0,1.002538749E1
2.005275579E0,-1.765958786E0,3.445993900E0,9.262340546E0,1.003914522E1
2.007645266E0,-1.742017984E0,3.419658899E0,9.252764702E0,1.001710279E1
2.010014173E0,-1.732441425E0,3.395718098E0,9.264734268E0,1.001836093E1
2.012383079E0,-1.708500624E0,3.395718098E0,9.252764702E0,1.000317602E1
2.014752766E0,-1.703712225E0,3.398112297E0,9.233612061E0,9.985459139E0
2.017122454E0,-1.682165384E0,3.417264938E0,9.250370979E0,1.000383643E1
2.019491360E0,-1.670194864E0,3.405294418E0,9.250370979E0,9.997746957E0
2.021860266E0,-1.648648024E0,3.393323898E0,9.245581627E0,9.985663073E0
2.024229954E0,-1.670194864E0,3.414870739E0,9.255158424E0,1.000544105E1
2.026599641E0,-1.674983025E0,3.395718098E0,9.257553101E0,1.000193776E1
2.028968548E0,-1.670194864E0,3.405294418E0,9.293463707E0,1.003763162E1
2.031337454E0,-1.667800784E0,3.402900219E0,9.298253059E0,1.004085650E1
2.033707141E0,-1.679771304E0,3.405294418E0,9.303040504E0,1.004809556E1
2.036076829E0,-1.677377105E0,3.410082817E0,9.315011024E0,1.006040204E1
2.038445735E0,-1.660618544E0,3.414870739E0,9.276705742E0,1.002378499E1
2.040814641E0,-1.643859744E0,3.414870739E0,9.245581627E0,9.992216803E0
2.043184329E0,-1.653436184E0,3.417264938E0,9.212064743E0,9.963618203E0
2.045554016E0,-1.646253943E0,3.417264938E0,9.216853142E0,9.966856753E0
2.047922923E0,-1.624706984E0,3.376565218E0,9.195305824E0,9.929477059E0
2.050291829E0,-1.603160143E0,3.400506258E0,9.133059502E0,9.876555124E0
2.052661516E0,-1.622312903E0,3.393323898E0,9.109118462E0,9.855079167E0
2.055031204E0,-1.598371863E0,3.398112297E0,9.085177422E0,9.830687086E0
2.057400110E0,-1.610342383E0,3.398112297E0,9.058842659E0,9.808312806E0
2.059769016E0,-1.648648024E0,3.388535738E0,9.070813179E0,9.822416530E0
2.062138704E0,-1.634283423E0,3.407688618E0,9.068418503E0,9.824430679E0
2.064508391E0,-1.648648024E0,3.400506258E0,9.039690018E0,9.797830307E0
2.066877298E0,-1.653436184E0,3.390929699E0,9.049265862E0,9.804155653E0
2.069246204E0,-1.653436184E0,3.376565218E0,9.015748978E0,9.768253350E0
2.071615891E0,-1.658224463E0,3.359806538E0,9.008566856E0,9.756653378E0
2.073985579E0,-1.672589064E0,3.362200737E0,9.008566856E0,9.759929548E0
2.076354485E0,-1.682165384E0,3.381353617E0,9.020536423E0,9.779228498E0
2.078723391E0,-1.696530104E0,3.366988659E0,9.008566856E0,9.765710616E0
2.081093079E0,-1.701318264E0,3.386141777E0,9.008566856E0,9.773163090E0
2.083462766E0,-1.706106424E0,3.378959179E0,9.034901619E0,9.795795605E0
2.085831673E0,-1.708500624E0,3.407688618E0,9.018142700E0,9.790720804E0
2.088200579E0,-1.737229586E0,3.390929699E0,9.037295341E0,9.807603068E0
2.090570266E0,-1.734835625E0,3.395718098E0,9.027718544E0,9.800013171E0
2.092939954E0,-1.734835625E0,3.400506258E0,9.037295341E0,9.810494613E0
2.095308860E0,-1.739623785E0,3.376565218E0,9.077994347E0,9.840602875E0
2.097677766E0,-1.742017984E0,3.376565218E0,9.066024780E0,9.829985994E0
2.100047454E0,-1.744411945E0,3.374171257E0,9.101935387E0,9.862719325E0
2.102417141E0,-1.739623785E0,3.369383097E0,9.092359543E0,9.851397638E0
2.104786048E0,-1.730047464E0,3.369383097E0,9.116300583E0,9.871815588E0
2.107154954E0,-1.734835625E0,3.376565218E0,9.116300583E0,9.875109297E0
2.109524641E0,-1.725259066E0,3.386141777E0,9.135454178E0,9.894392251E0
2.111894329E0,-1.715682745E0,3.378959179E0,9.164182663E0,9.916812809E0
2.114263235E0,-1.718076944E0,3.383747578E0,9.180941582E0,9.934345695E0
2.116632141E0,-1.684559584E0,3.357412577E0,9.157000542E0,9.897505702E0
2.119001829E0,-1.672589064E0,3.366988659E0,9.149817467E0,9.892084031E0
2.121371516E0,-1.646253943E0,3.366988659E0,9.113906860E0,9.854443817E0
2.123740423E0,-1.670194864E0,3.366988659E0,9.128272057E0,9.871753353E0
2.126109329E0,-1.682165384E0,3.362200737E0,9.145030022E0,9.887651302E0
2.128479016E0,-1.684559584E0,3.374171257E0,9.152213097E0,9.898776552E0
2.130848704E0,-1.689347744E0,3.359806538E0,9.137847900E0,9.881419940E0
2.133217610E0,-1.694135904E0,3.366988659E0,9.116300583E0,9.864767884E0
2.135586516E0,-1.727653265E0,3.362200737E0,9.113906860E0,9.866735927E0
2.137956204E0,-1.753988504E0,3.359806538E0,9.106724739E0,9.863934870E0
2.140325891E0,-1.761170626E0,3.335865498E0,9.092359543E0,9.843816468E0
2.142694798E0,-1.753988504E0,3.352624178E0,9.097147942E0,9.852647625E0
2.145063704E0,-1.792294025E0,3.355018139E0,9.118694305E0,9.880235342E0
2.147433391E0,-1.813840866E0,3.333471537E0,9.106724739E0,9.865824175E0
2.149803079E0,-1.813840866E0,3.338259697E0,9.113906860E0,9.874071843E0
2.152171985E0,-1.825811386E0,3.340653658E0,9.113906860E0,9.877087240E0
2.154540891E0,-1.809052467E0,3.338259697E0,9.116300583E0,9.875403027E0
2.156910579E0,-1.818629026E0,3.335865498E0,9.097147942E0,9.858676931E0
2.159280266E0,-1.823417187E0,3.355018139E0,9.087572098E0,9.857229001E0
2.161649173E0,-1.835387707E0,3.357412577E0,9.099541664E0,9.871298078E0
2.164018079E0,-1.828205585E0,3.369383097E0,9.085177422E0,9.860807619E0
2.166387766E0,-1.830599546E0,3.393323898E0,9.085177422E0,9.869457460E0
2.168757454E0,-1.885663748E0,3.383747578E0,9.121088982E0,9.909578177E0
2.171126360E0,-1.854540586E0,3.390929699E0,9.125876427E0,9.910567368E0
2.173495266E0,-1.878481627E0,3.402900219E0,9.147423744E0,9.939003183E0
2.175864954E0,-1.883269787E0,3.398112297E0,9.171364784E0,9.960311455E0
2.178234641E0,-1.883269787E0,3.419658899E0,9.190517426E0,9.985308339E0
2.180603548E0,-1.876087189E0,3.422053099E0,9.204882622E0,9.998000532E0
2.182972454E0,-1.864116669E0,3.395718098E0,9.185729980E0,9.969125720E0
2.185342141E0,-1.852146387E0,3.386141777E0,9.183335304E0,9.961428095E0
2.187711829E0,-1.840175867E0,3.402900219E0,9.221640587E0,1.000023161E1
2.190080735E0,-1.835387707E0,3.398112297E0,9.219246864E0,9.995515393E0
2.192449641E0,-1.847358227E0,3.390929699E0,9.238399506E0,1.001294972E1
2.194819329E0,-1.832993507E0,3.376565218E0,9.231217384E0,9.998821544E0
2.197189016E0,-1.847358227E0,3.369383097E0,9.197699547E0,9.968106732E0
2.199557923E0,-1.837781668E0,3.364594698E0,9.226429939E0,9.991243584E0
2.201926829E0,-1.792294025E0,3.369383097E0,9.207276344E0,9.966895104E0
2.204296516E0,-1.761170626E0,3.359806538E0,9.149817467E0,9.905007906E0
2.206666204E0,-1.780323505E0,3.378959179E0,9.159394264E0,9.923780540E0
2.209035110E0,-1.773141146E0,3.381353617E0,9.149817467E0,9.914471316E0
2.211404016E0,-1.789899826E0,3.407688618E0,9.125876427E0,9.904428487E0
2.213773704E0,-1.765958786E0,3.412476778E0,9.145030022E0,9.919434575E0
2.216143391E0,-1.792294025E0,3.395718098E0,9.133059502E0,9.907370748E0
2.218512298E0,-1.794687986E0,3.378959179E0,9.130665779E0,9.899865033E0
2.220881204E0,-1.761170626E0,3.378959179E0,9.121088982E0,9.885006389E0
2.223250891E0,-1.753988504E0,3.369383097E0,9.099541664E0,9.860571820E0
2.225620579E0,-1.749200106E0,3.388535738E0,9.092359543E0,9.859659097E0
2.227989433E0,-1.730047464E0,3.352624178E0,9.037295341E0,9.793153741E0
2.230358339E0,-1.706106424E0,3.347836018E0,9.051659584E0,9.800578879E0
2.232728079E0,-1.749200106E0,3.355018139E0,9.046872139E0,9.806209422E0
2.235097766E0,-1.749200106E0,3.352624178E0,9.054053307E0,9.812016672E0
2.237466620E0,-1.746806145E0,3.359806538E0,9.054053307E0,9.814046717E0
2.239835527E0,-1.744411945E0,3.378959179E0,9.082783699E0,9.846689692E0
2.242205266E0,-1.768352985E0,3.371777058E0,9.042083740E0,9.810975037E0
2.244574954E0,-1.770746946E0,3.386141777E0,9.058842659E0,9.831791861E0
2.246943808E0,-1.763564825E0,3.422053099E0,9.020536423E0,9.807685030E0
2.249312714E0,-1.761170626E0,3.431629419E0,9.022931099E0,9.812802253E0
2.251682454E0,-1.753988504E0,3.443599939E0,8.998990059E0,9.793706055E0
2.254052141E0,-1.758776426E0,3.460358858E0,8.972654343E0,9.776292953E0
2.256420995E0,-1.742017984E0,3.462752819E0,8.977442741E0,9.778535776E0
2.258789902E0,-1.746806145E0,3.481905460E0,8.991807938E0,9.799367700E0
2.261159641E0,-1.715682745E0,3.484299660E0,8.977442741E0,9.781533089E0
2.263529329E0,-1.701318264E0,3.484299660E0,9.013354301E0,9.812002024E0
2.265898183E0,-1.698924065E0,3.477117538E0,9.032507896E0,9.826641759E0
2.268267089E0,-1.682165384E0,3.469934940E0,9.030112267E0,9.819015043E0
2.270636829E0,-1.682165384E0,3.460358858E0,9.034901619E0,9.820041297E0
2.273006516E0,-1.658224463E0,3.462752819E0,9.054053307E0,9.834441862E0
2.275375370E0,-1.658224463E0,3.474723339E0,9.068418503E0,9.851884327E0
2.277744277E0,-1.653436184E0,3.465147018E0,9.104331017E0,9.880786322E0
2.280114016E0,-1.653436184E0,3.460358858E0,9.128272057E0,9.901175959E0
2.282483704E0,-1.641465664E0,3.474723339E0,9.092359543E0,9.871125258E0
2.284852558E0,-1.660618544E0,3.472329140E0,9.128272057E0,9.906567233E0
2.287221464E0,-1.643859744E0,3.472329140E0,9.137847900E0,9.912598487E0
2.289591204E0,-1.677377105E0,3.460358858E0,9.154606819E0,9.929476491E0
2.291960839E0,-1.684559584E0,3.457964420E0,9.149817467E0,9.925442993E0
2.294329745E0,-1.679771304E0,3.450782299E0,9.178547859E0,9.948631610E0
2.296698652E0,-1.684559584E0,3.457964420E0,9.149817467E0,9.925442993E0
2.299068391E0,-1.708500624E0,3.429235458E0,9.161788940E0,9.930609588E0
2.301438027E0,-1.713288546E0,3.422053099E0,9.180941582E0,9.946632263E0
2.303806933E0,-1.706106424E0,3.429235458E0,9.173758507E0,9.941242382E0
2.306175839E0,-1.696530104E0,3.410082817E0,9.183335304E0,9.941857297E0
2.308545579E0,-1.701318264E0,3.386141777E0,9.188123703E0,9.938916297E0
2.310915214E0,-1.686953545E0,3.405294418E0,9.212064743E0,9.965138191E0
2.313284120E0,-1.703712225E0,3.405294418E0,9.214458466E0,9.970201113E0
2.315653027E0,-1.720470905E0,3.417264938E0,9.243187904E0,1.000371143E1
2.318022714E0,-1.722865105E0,3.405294418E0,9.271916389E0,1.002660101E1
2.320392402E0,-1.753988504E0,3.410082817E0,9.255158424E0,1.001813845E1
2.322761308E0,-1.758776426E0,3.419658899E0,9.288675308E0,1.005320101E1
2.325130214E0,-1.742017984E0,3.426841259E0,9.279099464E0,1.004388145E1
2.327499902E0,-1.746806145E0,3.424447298E0,9.276705742E0,1.004168514E1
2.329869589E0,-1.742017984E0,3.395718098E0,9.238399506E0,9.995676740E0
2.332238495E0,-1.715682745E0,3.388535738E0,9.257553101E0,1.000639951E1
2.334607402E0,-1.710894585E0,3.366988659E0,9.243187904E0,9.985003533E0
2.336977089E0,-1.679771304E0,3.378959179E0,9.240794182E0,9.981546668E0
2.339346777E0,-1.696530104E0,3.366988659E0,9.243187904E0,9.982552262E0
2.341715683E0,-1.696530104E0,3.355018139E0,9.216853142E0,9.954131953E0
2.344084589E0,-1.684559584E0,3.333471537E0,9.209671021E0,9.938199725E0
2.346454277E0,-1.698924065E0,3.338259697E0,9.200093269E0,9.933379936E0
2.348823964E0,-1.682165384E0,3.311924458E0,9.197699547E0,9.919485921E0
2.351192870E0,-1.682165384E0,3.357412577E0,9.190517426E0,9.928117150E0
2.353561777E0,-1.651042104E0,3.357412577E0,9.190517426E0,9.922891201E0
2.355931464E0,-1.694135904E0,3.359806538E0,9.159394264E0,9.902166415E0
2.358301152E0,-1.703712225E0,3.388535738E0,9.137847900E0,9.893688596E0
2.360670058E0,-1.701318264E0,3.388535738E0,9.152213097E0,9.906546464E0
2.363038964E0,-1.710894585E0,3.400506258E0,9.152213097E0,9.912295781E0
2.365408652E0,-1.710894585E0,3.393323898E0,9.133059502E0,9.892147553E0
2.367778339E0,-1.722865105E0,3.405294418E0,9.140241623E0,9.904963966E0
2.370147245E0,-1.730047464E0,3.405294418E0,9.154606819E0,9.919471776E0
2.372516152E0,-1.737229586E0,3.405294418E0,9.137847900E0,9.905264305E0
2.374885839E0,-1.742017984E0,3.429235458E0,9.161788940E0,9.936430902E0
2.377255527E0,-1.732441425E0,3.400506258E0,9.142635345E0,9.907198250E0
2.379624381E0,-1.742017984E0,3.398112297E0,9.113906860E0,9.881553122E0
2.381993287E0,-1.713288546E0,3.386141777E0,9.121088982E0,9.879047423E0
2.384363027E0,-1.686953545E0,3.386141777E0,9.104331017E0,9.859037055E0
2.386732714E0,-1.698924065E0,3.381353617E0,9.118694305E0,9.872713968E0
2.389101568E0,-1.698924065E0,3.366988659E0,9.116300583E0,9.865591311E0
2.391470475E0,-1.694135904E0,3.381353617E0,9.147423744E0,9.898434720E0
2.393840214E0,-1.701318264E0,3.376565218E0,9.147423744E0,9.898032010E0
2.396209902E0,-1.674983025E0,3.395718098E0,9.123482704E0,9.877975814E0
2.398578756E0,-1.665406704E0,3.400506258E0,9.106724739E0,9.862527961E0
2.400947662E0,-1.670194864E0,3.386141777E0,9.097147942E0,9.849548603E0
2.403317402E0,-1.677377105E0,3.393323898E0,9.097147942E0,9.853240163E0
2.405687089E0,-1.674983025E0,3.386141777E0,9.099541664E0,9.852572393E0
2.408055943E0,-1.663012624E0,3.424447298E0,9.094753265E0,9.859360387E0
2.410424850E0,-1.665406704E0,3.424447298E0,9.054053307E0,9.822234983E0
2.412794589E0,-1.670194864E0,3.395718098E0,9.077994347E0,9.835163122E0
2.415164277E0,-1.677377105E0,3.422053099E0,9.082783699E0,9.849923913E0
2.417533131E0,-1.663012624E0,3.429235458E0,9.077994347E0,9.845569977E0
2.419902037E0,-1.682165384E0,3.434023619E0,9.068418503E0,9.841667173E0
2.422271777E0,-1.672589064E0,3.424447298E0,9.070813179E0,9.838904675E0
2.424641412E0,-1.660618544E0,3.441205978E0,9.058842659E0,9.831692777E0
2.427010318E0,-1.677377105E0,3.450782299E0,9.068418503E0,9.846710444E0
2.429379225E0,-1.682165384E0,3.448388338E0,9.046872139E0,9.826848834E0
2.431748964E0,-1.684559584E0,3.457964420E0,9.046872139E0,9.830623298E0
2.434118600E0,-1.677377105E0,3.469934940E0,9.054053307E0,9.840219699E0
2.436487506E0,-1.672589064E0,3.472329140E0,9.054053307E0,9.840249240E0
2.438856412E0,-1.653436184E0,3.465147018E0,9.082783699E0,9.860935797E0
2.441226100E0,-1.646253943E0,3.474723339E0,9.075600624E0,9.856489285E0
2.443595787E0,-1.639071703E0,3.443599939E0,9.080389977E0,9.848777524E0
2.445964693E0,-1.641465664E0,3.438811779E0,9.070813179E0,9.838673066E0
2.448333600E0,-1.643859744E0,3.431629419E0,9.087572098E0,9.852021212E0
2.450703287E0,-1.634283423E0,3.424447298E0,9.094753265E0,9.854555219E0
2.453072975E0,-1.641465664E0,3.417264938E0,9.106724739E0,9.864306598E0
2.455441881E0,-1.610342383E0,3.426841259E0,9.097147942E0,9.853656391E0
2.457810787E0,-1.605554223E0,3.429235458E0,9.097147942E0,9.853707975E0
2.460180475E0,-1.641465664E0,3.417264938E0,9.104331017E0,9.862096757E0
2.462550162E0,-1.660618544E0,3.414870739E0,9.121088982E0,9.879942324E0
2.464919068E0,-1.651042104E0,3.412476778E0,9.104331017E0,9.862037368E0
2.467287975E0,-1.663012624E0,3.445993900E0,9.104331017E0,9.875693809E0
2.469657662E0,-1.706106424E0,3.457964420E0,9.109118462E0,9.891630614E0
2.472027350E0,-1.722865105E0,3.460358858E0,9.154606819E0,9.937261877E0
2.474396204E0,-1.725259066E0,3.445993900E0,9.140241623E0,9.919446039E0
2.476765110E0,-1.706106424E0,3.424447298E0,9.130665779E0,9.899833130E0
2.479134850E0,-1.708500624E0,3.438811779E0,9.109118462E0,9.885364939E0
2.481504537E0,-1.691741705E0,3.414870739E0,9.130665779E0,9.894058304E0
2.483873391E0,-1.655830264E0,3.395718098E0,9.135454178E0,9.885807923E0
2.486242298E0,-1.663012624E0,3.402900219E0,9.109118462E0,9.865159909E0
2.488612037E0,-1.672589064E0,3.376565218E0,9.116300583E0,9.864364306E0
2.490981725E0,-1.686953545E0,3.400506258E0,9.130665779E0,9.888291695E0
2.493350579E0,-1.686953545E0,3.419658899E0,9.111513138E0,9.877223846E0
2.495719485E0,-1.706106424E0,3.429235458E0,9.080389977E0,9.855147745E0
2.498089225E0,-1.686953545E0,3.402900219E0,9.118694305E0,9.878062968E0
2.500458860E0,-1.722865105E0,3.419658899E0,9.097147942E0,9.870178916E0
2.502827766E0,-1.739623785E0,3.407688618E0,9.113906860E0,9.884428708E0
2.505196673E0,-1.749200106E0,3.407688618E0,9.099541664E0,9.872877049E0
2.507566412E0,-1.765958786E0,3.386141777E0,9.094753265E0,9.864030795E0
2.509936048E0,-1.775535345E0,3.395718098E0,9.094753265E0,9.869040689E0
2.512304954E0,-1.770746946E0,3.414870739E0,9.109118462E0,9.888019319E0
2.514673860E0,-1.751594305E0,3.398112297E0,9.109118462E0,9.878830343E0
2.517043548E0,-1.794687986E0,3.374171257E0,9.111513138E0,9.880567205E0
2.519413235E0,-1.799476385E0,3.417264938E0,9.104331017E0,9.889623763E0
2.521782141E0,-1.799476385E0,3.412476778E0,9.111513138E0,9.894583603E0
2.524151048E0,-1.809052467E0,3.417264938E0,9.106724739E0,9.893573973E0
2.526520735E0,-1.804264545E0,3.414870739E0,9.109118462E0,9.894076605E0
2.528890423E0,-1.813840866E0,3.448388338E0,9.118694305E0,9.916248618E0
2.531259329E0,-1.804264545E0,3.448388338E0,9.097147942E0,9.894688138E0
2.533628235E0,-1.785111427E0,3.450782299E0,9.085177422E0,9.881040940E0
2.535997923E0,-1.813840866E0,3.448388338E0,9.063631058E0,9.865637778E0
2.538367610E0,-1.816235065E0,3.431629419E0,9.070813179E0,9.866835461E0
2.540736516E0,-1.777929306E0,3.436417818E0,9.039690018E0,9.832903724E0
2.543105423E0,-1.794687986E0,3.424447298E0,9.027718544E0,9.820766079E0
2.545475110E0,-1.763564825E0,3.441205978E0,9.049265862E0,9.840796315E0
2.547844798E0,-1.761170626E0,3.438811779E0,9.046872139E0,9.837329105E0
2.550213704E0,-1.770746946E0,3.431629419E0,9.037295341E0,9.827732816E0
2.552582610E0,-1.756382465E0,3.436417818E0,9.030112267E0,9.820222723E0
2.554952298E0,-1.732441425E0,3.426841259E0,9.037295341E0,9.819231202E0
2.557321985E0,-1.749200106E0,3.436417818E0,9.032507896E0,9.821143891E0
2.559690839E0,-1.708500624E0,3.429235458E0,8.998990059E0,9.780616151E0
2.562059745E0,-1.696530104E0,3.431629419E0,9.003777504E0,9.783777604E0
2.564429485E0,-1.694135904E0,3.436417818E0,9.013354301E0,9.793856219E0
2.566799120E0,-1.665406704E0,3.422053099E0,9.001383781E0,9.772867383E0
2.569168027E0,-1.686953545E0,3.436417818E0,9.027718544E0,9.805839168E0
2.571536933E0,-1.655830264E0,3.441205978E0,9.015748978E0,9.791190024E0
2.573906673E0,-1.686953545E0,3.426841259E0,9.018142700E0,9.793668926E0
2.576276308E0,-1.670194864E0,3.445993900E0,9.025324821E0,9.804127344E0
2.578645214E0,-1.686953545E0,3.453176498E0,9.063631058E0,9.844777709E0
2.581014120E0,-1.703712225E0,3.457964420E0,9.082783699E0,9.866970812E0
2.583383860E0,-1.667800784E0,3.467540979E0,9.111513138E0,9.890655770E0
2.585753495E0,-1.679771304E0,3.486693859E0,9.080389977E0,9.870772403E0
2.588122402E0,-1.706106424E0,3.489088058E0,9.085177422E0,9.880535582E0
2.590491308E0,-1.686953545E0,3.486693859E0,9.109118462E0,9.898428435E0
2.592860995E0,-1.706106424E0,3.496270180E0,9.145030022E0,9.938122479E0
2.595230683E0,-1.715682745E0,3.460358858E0,9.133059502E0,9.916169955E0
2.597599589E0,-1.706106424E0,3.481905460E0,9.142635345E0,9.930873367E0
2.599968495E0,-1.713288546E0,3.498664141E0,9.159394264E0,9.953417086E0
2.602338183E0,-1.725259066E0,3.520211220E0,9.147423744E0,9.952073504E0
2.604707870E0,-1.720470905E0,3.510634661E0,9.185729980E0,9.983096270E0
2.607076777E0,-1.706106424E0,3.505846500E0,9.202488899E0,9.994376457E0
2.609445683E0,-1.706106424E0,3.479511499E0,9.188123703E0,9.971931437E0
2.611815370E0,-1.708500624E0,3.481905460E0,9.197699547E0,9.981999648E0
2.614185058E0,-1.696530104E0,3.486693859E0,9.197699547E0,9.981629397E0
2.616553912E0,-1.672589064E0,3.481905460E0,9.207276344E0,9.984746241E0
2.618922818E0,-1.655830264E0,3.460358858E0,9.204882622E0,9.972247559E0
2.621292558E0,-1.653436184E0,3.467540979E0,9.207276344E0,9.976553981E0
2.623662245E0,-1.663012624E0,3.462752819E0,9.204882622E0,9.974273515E0
2.626031100E0,-1.648648024E0,3.469934940E0,9.207276344E0,9.976593932E0
2.628400006E0,-1.629495144E0,3.489088058E0,9.195305824E0,9.969084166E0
2.630769745E0,-1.634283423E0,3.469934940E0,9.216853142E0,9.983071303E0
2.633139381E0,-1.624706984E0,3.481905460E0,9.180941582E0,9.952538709E0
2.635508287E0,-1.627101183E0,3.498664141E0,9.200093269E0,9.976463561E0
2.637877193E0,-1.651042104E0,3.477117538E0,9.188123703E0,9.961822302E0
2.640246881E0,-1.643859744E0,3.489088058E0,9.173758507E0,9.951575527E0
2.642616568E0,-1.660618544E0,3.489088058E0,9.180941582E0,9.960977751E0
2.644985475E0,-1.641465664E0,3.474723339E0,9.173758507E0,9.946152872E0
2.647354381E0,-1.648648024E0,3.469934940E0,9.149817467E0,9.923590503E0
2.649724068E0,-1.655830264E0,3.477117538E0,9.168971062E0,9.944956037E0
2.652093756E0,-1.660618544E0,3.489088058E0,9.168971062E0,9.949945716E0
2.654462662E0,-1.651042104E0,3.472329140E0,9.164182663E0,9.938070918E0
2.656831568E0,-1.682165384E0,3.486693859E0,9.168971062E0,9.952725495E0
2.659201256E0,-1.648648024E0,3.486693859E0,9.176153183E0,9.953736063E0
2.661570943E0,-1.653436184E0,3.477117538E0,9.154606819E0,9.931315301E0
2.663939798E0,-1.641465664E0,3.501058578E0,9.161788940E0,9.944355046E0
2.666308704E0,-1.667800784E0,3.477117538E0,9.137847900E0,9.918274552E0
2.668678443E0,-1.651042104E0,3.467540979E0,9.161788940E0,9.934191314E0
2.671048131E0,-1.648648024E0,3.477117538E0,9.142635345E0,9.919484248E0
2.673416985E0,-1.665406704E0,3.467540979E0,9.157000542E0,9.932173924E0
2.675785891E0,-1.660618544E0,3.481905460E0,9.159394264E0,9.938602662E0
2.678155631E0,-1.636677504E0,3.450782299E0,9.154606819E0,9.919346639E0
2.680525266E0,-1.643859744E0,3.472329140E0,9.109118462E0,9.886120759E0
2.682894173E0,-1.639071703E0,3.453176498E0,9.104331017E0,9.874200081E0
2.685263079E0,-1.641465664E0,3.481905460E0,9.101935387E0,9.882474535E0
2.687632818E0,-1.646253943E0,3.448388338E0,9.085177422E0,9.856063259E0
2.690002454E0,-1.643859744E0,3.448388338E0,9.075600624E0,9.846836227E0
2.692371360E0,-1.651042104E0,3.443599939E0,9.063631058E0,9.835330626E0
2.694740266E0,-1.634283423E0,3.438811779E0,9.039690018E0,9.808787100E0
2.697109954E0,-1.639071703E0,3.429235458E0,9.030112267E0,9.797404729E0
2.699479641E0,-1.646253943E0,3.426841259E0,9.015748978E0,9.784534873E0
2.701848548E0,-1.648648024E0,3.450782299E0,8.991807938E0,9.771312541E0
2.704217454E0,-1.663012624E0,3.436417818E0,8.996595383E0,9.773090959E0
2.706587141E0,-1.670194864E0,3.436417818E0,9.001383781E0,9.778723244E0
2.708956829E0,-1.684559584E0,3.445993900E0,9.001383781E0,9.784555428E0
2.711325683E0,-1.682165384E0,3.438811779E0,8.991807938E0,9.772804962E0
2.713694589E0,-1.691741705E0,3.441205978E0,9.006172180E0,9.788515001E0
2.716064329E0,-1.691741705E0,3.453176498E0,8.996595383E0,9.783922854E0
2.718434016E0,-1.696530104E0,3.457964420E0,8.996595383E0,9.786442704E0
2.720802870E0,-1.734835625E0,3.484299660E0,8.991807938E0,9.798092097E0
2.723171777E0,-1.720470905E0,3.467540979E0,8.998990059E0,9.796207565E0
2.725541516E0,-1.725259066E0,3.496270180E0,9.006172180E0,9.813845391E0
2.727911152E0,-1.739623785E0,3.469934940E0,9.010960579E0,9.811429557E0
2.730280058E0,-1.742017984E0,3.477117538E0,9.030112267E0,9.831983553E0
2.732648964E0,-1.758776426E0,3.460358858E0,9.022931099E0,9.822457104E0
2.735018652E0,-1.737229586E0,3.443599939E0,9.044477463E0,9.832543910E0
2.737388339E0,-1.753988504E0,3.460358858E0,9.049265862E0,9.845799700E0
2.739757245E0,-1.734835625E0,3.445993900E0,9.046872139E0,9.835162637E0
2.742126152E0,-1.739623785E0,3.455570459E0,9.039690018E0,9.832764297E0
2.744495839E0,-1.732441425E0,3.465147018E0,9.049265862E0,9.843668512E0
2.746865527E0,-1.732441425E0,3.462752819E0,9.068418503E0,9.860437339E0
2.749234433E0,-1.722865105E0,3.453176498E0,9.044477463E0,9.833375040E0
2.751603339E0,-1.727653265E0,3.453176498E0,9.042083740E0,9.832013634E0
2.753973027E0,-1.744411945E0,3.474723339E0,9.054053307E0,9.853555531E0
2.756342714E0,-1.746806145E0,3.486693859E0,9.066024780E0,9.869203164E0
2.758711568E0,-1.753988504E0,3.469934940E0,9.089965820E0,9.886576899E0
2.761080475E0,-1.737229586E0,3.477117538E0,9.082783699E0,9.879538083E0
2.763450214E0,-1.734835625E0,3.465147018E0,9.066024780E0,9.859498153E0
2.765819850E0,-1.722865105E0,3.462752819E0,9.094753265E0,9.882988324E0
2.768188756E0,-1.727653265E0,3.472329140E0,9.080389977E0,9.873972736E0
2.770557662E0,-1.739623785E0,3.465147018E0,9.094753265E0,9.886762449E0
2.772927402E0,-1.710894585E0,3.460358858E0,9.106724739E0,9.891090899E0
2.775297037E0,-1.737229586E0,3.445993900E0,9.123482704E0,9.906097983E0
2.777665943E0,-1.742017984E0,3.472329140E0,9.113906860E0,9.907320252E0
2.780034850E0,-1.761170626E0,3.462752819E0,9.113906860E0,9.907354708E0
2.782404537E0,-1.734835625E0,3.460358858E0,9.111513138E0,9.899667153E0
2.784774225E0,-1.768352985E0,3.474723339E0,9.121088982E0,9.919427341E0
2.787143131E0,-1.768352985E0,3.465147018E0,9.133059502E0,9.927088798E0
2.789512037E0,-1.785111427E0,3.479511499E0,9.128272057E0,9.930708626E0
2.791881725E0,-1.765958786E0,3.469934940E0,9.128272057E0,9.923931160E0
2.794251412E0,-1.782717466E0,3.489088058E0,9.125876427E0,9.931436835E0
2.796620266E0,-1.773141146E0,3.481905460E0,9.118694305E0,9.920598822E0
2.798989173E0,-1.785111427E0,3.486693859E0,9.142635345E0,9.946428401E0
2.801358912E0,-1.794687986E0,3.493875980E0,9.140241623E0,9.948471805E0
2.803728600E0,-1.780323505E0,3.486693859E0,9.152213097E0,9.954375441E0
2.806097454E0,-1.768352985E0,3.486693859E0,9.125876427E0,9.928027342E0
2.808466360E0,-1.751594305E0,3.484299660E0,9.154606819E0,9.950640821E0
2.810836100E0,-1.753988504E0,3.450782299E0,9.168971062E0,9.952607924E0
2.813205735E0,-1.749200106E0,3.479511499E0,9.176153183E0,9.968374417E0
2.815574641E0,-1.739623785E0,3.448388338E0,9.188123703E0,9.966909763E0
2.817943548E0,-1.720470905E0,3.457964420E0,9.168971062E0,9.949249640E0
2.820313235E0,-1.725259066E0,3.460358858E0,9.180941582E0,9.961942110E0
2.822682923E0,-1.708500624E0,3.457964420E0,9.183335304E0,9.960428687E0
2.825051829E0,-1.708500624E0,3.469934940E0,9.183335304E0,9.964590819E0
2.827420735E0,-1.698924065E0,3.460358858E0,9.195305824E0,9.970660741E0
2.829790423E0,-1.701318264E0,3.484299660E0,9.185729980E0,9.970579884E0
2.832160110E0,-1.691741705E0,3.479511499E0,9.190517426E0,9.971689968E0
2.834528964E0,-1.694135904E0,3.486693859E0,9.185729980E0,9.970193870E0
2.836897870E0,-1.691741705E0,3.472329140E0,9.200093269E0,9.978014623E0
2.839267610E0,-1.691741705E0,3.460358858E0,9.204882622E0,9.978273273E0
2.841637245E0,-1.686953545E0,3.474723339E0,9.190517426E0,9.969208850E0
2.844006152E0,-1.684559584E0,3.474723339E0,9.168971062E0,9.948943341E0
2.846375058E0,-1.686953545E0,3.467540979E0,9.185729980E0,9.962293309E0
2.848744798E0,-1.674983025E0,3.457964420E0,9.197699547E0,9.967986909E0
2.851114433E0,-1.663012624E0,3.455570459E0,9.183335304E0,9.951895573E0
2.853483339E0,-1.663012624E0,3.448388338E0,9.168971062E0,9.936147314E0
2.855852245E0,-1.684559584E0,3.467540979E0,9.173758507E0,9.950850545E0
2.858221933E0,-1.696530104E0,3.472329140E0,9.137847900E0,9.921469059E0
2.860591620E0,-1.679771304E0,3.472329140E0,9.159394264E0,9.938470938E0
2.862960527E0,-1.670194864E0,3.489088058E0,9.137847900E0,9.922880157E0
2.865329433E0,-1.696530104E0,3.486693859E0,9.128272057E0,9.917691223E0
2.867699120E0,-1.696530104E0,3.498664141E0,9.106724739E0,9.902085671E0
2.870068808E0,-1.691741705E0,3.515423059E0,9.063631058E0,9.867603419E0
2.872437662E0,-1.715682745E0,3.524999142E0,9.068418503E0,9.879544543E0
2.874806568E0,-1.706106424E0,3.505846500E0,9.058842659E0,9.862270993E0
2.877176308E0,-1.718076944E0,3.493875980E0,9.063631058E0,9.864500276E0
2.879545943E0,-1.710894585E0,3.520211220E0,9.037295341E0,9.848439186E0
2.881914850E0,-1.689347744E0,3.510634661E0,9.003777504E0,9.810528062E0
2.884283756E0,-1.684559584E0,3.503452539E0,9.027718544E0,9.829121161E0
2.886653443E0,-1.665406704E0,3.489088058E0,9.030112267E0,9.822944697E0
2.889023131E0,-1.677377105E0,3.496270180E0,9.022931099E0,9.820936042E0
2.891392037E0,-1.682165384E0,3.503452539E0,9.022931099E0,9.824314006E0
2.893760943E0,-1.665406704E0,3.493875980E0,9.039690018E0,9.833450283E0
2.896130631E0,-1.677377105E0,3.477117538E0,9.044477463E0,9.833946965E0
2.898500318E0,-1.677377105E0,3.493875980E0,9.044477463E0,9.839884953E0
2.900869173E0,-1.672589064E0,3.517817020E0,9.046872139E0,9.849796255E0
2.903238079E0,-1.691741705E0,3.508240700E0,9.049265862E0,9.851850356E0
2.905607818E0,-1.667800784E0,3.515423059E0,9.039690018E0,9.841532114E0
2.907977454E0,-1.660618544E0,3.505846500E0,9.054053307E0,9.850101264E0
2.910346360E0,-1.663012624E0,3.522605181E0,9.056448936E0,9.858682751E0
2.912715266E0,-1.674983025E0,3.515423059E0,9.049265862E0,9.851547089E0
2.915084954E0,-1.670194864E0,3.498664141E0,9.073206902E0,9.866776836E0
2.917454641E0,-1.663012624E0,3.472329140E0,9.068418503E0,9.851847278E0
2.919823548E0,-1.648648024E0,3.474723339E0,9.077994347E0,9.859093465E0
2.922192454E0,-1.651042104E0,3.469934940E0,9.075600624E0,9.855603239E0
2.924562141E0,-1.648648024E0,3.467540979E0,9.051659584E0,9.832315189E0
2.926931829E0,-1.636677504E0,3.465147018E0,9.080389977E0,9.855934214E0
2.929300683E0,-1.624706984E0,3.457964420E0,9.063631058E0,9.835984885E0
2.931669589E0,-1.629495144E0,3.462752819E0,9.077994347E0,9.851694924E0
2.934039329E0,-1.646253943E0,3.460358858E0,9.061236382E0,9.838203100E0
2.936409016E0,-1.619918823E0,3.460358858E0,9.068418503E0,9.840448900E0
2.938777870E0,-1.629495144E0,3.457964420E0,9.056448936E0,9.830159698E0
2.941146777E0,-1.627101183E0,3.443599939E0,9.058842659E0,9.826925721E0
2.943516464E0,-1.639071703E0,3.434023619E0,9.054053307E0,9.821148382E0
2.945886152E0,-1.622312903E0,3.441205978E0,9.039690018E0,9.807639541E0
2.948255058E0,-1.629495144E0,3.434023619E0,9.054053307E0,9.819554670E0
2.950623964E0,-1.636677504E0,3.431629419E0,9.051659584E0,9.817705177E0
2.952993652E0,-1.639071703E0,3.422053099E0,9.056448936E0,9.819178723E0
2.955363339E0,-1.651042104E0,3.434023619E0,9.049265862E0,9.818740799E0
2.957732193E0,-1.641465664E0,3.436417818E0,9.075600624E0,9.842250943E0
2.960101100E0,-1.663012624E0,3.419658899E0,9.068418503E0,9.833406944E0
2.962470839E0,-1.663012624E0,3.422053099E0,9.073206902E0,9.838655491E0
2.964840527E0,-1.663012624E0,3.419658899E0,9.075600624E0,9.840030725E0
2.967209381E0,-1.677377105E0,3.450782299E0,9.068418503E0,9.846710444E0
2.969578287E0,-1.686953545E0,3.448388338E0,9.092359543E0,9.869559081E0
2.971948027E0,-1.696530104E0,3.445993900E0,9.099541664E0,9.876980655E0
2.974317662E0,-1.722865105E0,3.462752819E0,9.101935387E0,9.889598022E0
2.976686568E0,-1.744411945E0,3.474723339E0,9.106724739E0,9.901975095E0
2.979055475E0,-1.746806145E0,3.467540979E0,9.128272057E0,9.919703770E0
2.981425162E0,-1.751594305E0,3.469934940E0,9.123482704E0,9.916978761E0
2.983794850E0,-1.780323505E0,3.457964420E0,9.176153183E0,9.966386354E0
2.986163704E0,-1.780323505E0,3.469934940E0,9.149817467E0,9.946313887E0
2.988532610E0,-1.777929306E0,3.472329140E0,9.168971062E0,9.964343059E0
2.990902350E0,-1.775535345E0,3.465147018E0,9.145030022E0,9.939383468E0
2.993271985E0,-1.775535345E0,3.450782299E0,9.154606819E0,9.943201207E0
2.995640891E0,-1.753988504E0,3.479511499E0,9.142635345E0,9.938372956E0
2.998009798E0,-1.770746946E0,3.445993900E0,9.137847900E0,9.925254806E0
3.000379537E0,-1.782717466E0,3.474723339E0,9.164182663E0,9.961627765E0
3.002749173E0,-1.773141146E0,3.450782299E0,9.154606819E0,9.942773960E0
3.005118079E0,-1.749200106E0,3.477117538E0,9.166576385E0,9.958723313E0
3.007486985E0,-1.734835625E0,3.481905460E0,9.161788940E0,9.953476622E0
3.009856673E0,-1.725259066E0,3.477117538E0,9.171364784E0,9.958955629E0
3.012226360E0,-1.713288546E0,3.489088058E0,9.161788940E0,9.952259528E0
3.014595214E0,-1.698924065E0,3.467540979E0,9.178547859E0,9.957706775E0
3.016964120E0,-1.720470905E0,3.467540979E0,9.183335304E0,9.965816971E0
3.019333860E0,-1.758776426E0,3.477117538E0,9.190517426E0,9.982447167E0
3.021703495E0,-1.725259066E0,3.457964420E0,9.173758507E0,9.954490540E0
3.024072402E0,-1.722865105E0,3.457964420E0,9.204882622E0,9.982767461E0
3.026441308E0,-1.727653265E0,3.465147018E0,9.216853142E0,9.997120160E0
3.028810995E0,-1.708500624E0,3.474723339E0,9.226429939E0,1.000598251E1
3.031180683E0,-1.703712225E0,3.450782299E0,9.209671021E0,9.981411430E0
3.033549589E0,-1.689347744E0,3.453176498E0,9.238399506E0,1.000631546E1
3.035918495E0,-1.658224463E0,3.438811779E0,9.214458466E0,9.974035273E0
3.038288183E0,-1.682165384E0,3.453176498E0,9.207276344E0,9.976374391E0
3.040657870E0,-1.696530104E0,3.472329140E0,9.221640587E0,9.998696873E0
3.043026725E0,-1.674983025E0,3.477117538E0,9.236005783E0,1.000998089E1
3.045395631E0,-1.679771304E0,3.489088058E0,9.214458466E0,9.995079386E0
3.047765370E0,-1.710894585E0,3.498664141E0,9.204882622E0,9.994882447E0
3.050135006E0,-1.713288546E0,3.498664141E0,9.214458466E0,1.000411182E1
3.052503912E0,-1.706106424E0,3.503452539E0,9.204882622E0,9.995741239E0
3.054872818E0,-1.713288546E0,3.498664141E0,9.195305824E0,9.986473733E0
3.057242506E0,-1.708500624E0,3.479511499E0,9.195305824E0,9.978959057E0
3.059612193E0,-1.698924065E0,3.457964420E0,9.152213097E0,9.930098966E0
3.061981100E0,-1.691741705E0,3.465147018E0,9.152213097E0,9.931376462E0
3.064350006E0,-1.679771304E0,3.467540979E0,9.142635345E0,9.921353392E0
3.066719693E0,-1.686953545E0,3.448388338E0,9.128272057E0,9.902653439E0
3.069089381E0,-1.663012624E0,3.445993900E0,9.135454178E0,9.904393368E0
3.071458235E0,-1.663012624E0,3.450782299E0,9.106724739E0,9.879572103E0
3.073827141E0,-1.660618544E0,3.453176498E0,9.089965820E0,9.864560836E0
3.076196881E0,-1.648648024E0,3.457964420E0,9.070813179E0,9.846583670E0
3.078566516E0,-1.653436184E0,3.469934940E0,9.082783699E0,9.862619299E0
3.080935423E0,-1.663012624E0,3.474723339E0,9.080389977E0,9.863711036E0
3.083304329E0,-1.665406704E0,3.501058578E0,9.085177422E0,9.877825643E0
3.085674016E0,-1.679771304E0,3.503452539E0,9.082783699E0,9.878905357E0
3.088043704E0,-1.694135904E0,3.522605181E0,9.075600624E0,9.881567204E0
3.090412558E0,-1.665406704E0,3.532181740E0,9.061236382E0,9.866908943E0
3.092781464E0,-1.655830264E0,3.541758060E0,9.063631058E0,9.870928628E0
3.095151204E0,-1.658224463E0,3.524999142E0,9.037295341E0,9.841139894E0
3.097520839E0,-1.646253943E0,3.536969662E0,9.037295341E0,9.843424888E0
3.099889745E0,-1.641465664E0,3.520211220E0,9.030112267E0,9.830016485E0
3.102258652E0,-1.648648024E0,3.501058578E0,9.039690018E0,9.833180924E0
3.104628339E0,-1.643859744E0,3.472329140E0,9.056448936E0,9.837612101E0
3.106998027E0,-1.639071703E0,3.467540979E0,9.042083740E0,9.821897722E0
3.109366933E0,-1.624706984E0,3.474723339E0,9.056448936E0,9.835275411E0
3.111735839E0,-1.627101183E0,3.484299660E0,9.089965820E0,9.869917983E0
3.114105527E0,-1.667800784E0,3.469934940E0,9.080389977E0,9.862833775E0
3.116475214E0,-1.648648024E0,3.486693859E0,9.085177422E0,9.869930251E0
3.118844068E0,-1.674983025E0,3.484299660E0,9.097147942E0,9.884534027E0
3.121212975E0,-1.677377105E0,3.489088058E0,9.075600624E0,9.866805771E0
3.123582714E0,-1.686953545E0,3.496270180E0,9.068418503E0,9.864376897E0
3.125952350E0,-1.698924065E0,3.486693859E0,9.042083740E0,9.838834047E0
3.128321256E0,-1.694135904E0,3.460358858E0,9.056448936E0,9.841922944E0
3.130690162E0,-1.701318264E0,3.462752819E0,9.044477463E0,9.832991076E0
3.133059850E0,-1.703712225E0,3.467540979E0,9.066024780E0,9.854911522E0
3.135429537E0,-1.706106424E0,3.431629419E0,9.070813179E0,9.847158541E0
3.137798391E0,-1.684559584E0,3.422053099E0,9.085177422E0,9.853356645E0
3.140167298E0,-1.694135904E0,3.414870739E0,9.087572098E0,9.854714875E0
3.142537037E0,-1.679771304E0,3.407688618E0,9.080389977E0,9.843142561E0
3.144906673E0,-1.679771304E0,3.398112297E0,9.075600624E0,9.835411812E0
3.147275579E0,-1.684559584E0,3.381353617E0,9.104331017E0,9.856984150E0
3.149644485E0,-1.703712225E0,3.378959179E0,9.106724739E0,9.861664969E0
3.152014173E0,-1.698924065E0,3.376565218E0,9.097147942E0,9.851174362E0
3.154383860E0,-1.734835625E0,3.395718098E0,9.099541664E0,9.866215817E0
3.156752766E0,-1.732441425E0,3.378959179E0,9.123482704E0,9.882138184E0
3.159121673E0,-1.770746946E0,3.381353617E0,9.130665779E0,9.896370779E0
3.161491360E0,-1.763564825E0,3.407688618E0,9.125876427E0,9.899703186E0
3.163861048E0,-1.780323505E0,3.414870739E0,9.142635345E0,9.920618681E0
3.166229902E0,-1.787505865E0,3.436417818E0,9.135454178E0,9.922734889E0
3.168598808E0,-1.763564825E0,3.419658899E0,9.116300583E0,9.895007034E0
3.170968548E0,-1.761170626E0,3.443599939E0,9.121088982E0,9.907288566E0
3.173338183E0,-1.770746946E0,3.424447298E0,9.106724739E0,9.889126327E0
3.175707089E0,-1.770746946E0,3.436417818E0,9.092359543E0,9.880056388E0
3.178075995E0,-1.773141146E0,3.429235458E0,9.082783699E0,9.869176515E0
3.180445683E0,-1.770746946E0,3.429235458E0,9.056448936E0,9.844514610E0
3.182815370E0,-1.763564825E0,3.453176498E0,9.032507896E0,9.829587363E0
3.185184225E0,-1.763564825E0,3.422053099E0,9.010960579E0,9.798878449E0
3.187553131E0,-1.756382465E0,3.398112297E0,9.001383781E0,9.780437441E0
3.189922870E0,-1.746806145E0,3.419658899E0,8.987019539E0,9.773019947E0
3.192292506E0,-1.734835625E0,3.424447298E0,8.972654343E0,9.759355506E0
3.194661412E0,-1.737229586E0,3.414870739E0,8.967866898E0,9.752022636E0
3.197030318E0,-1.734835625E0,3.412476778E0,8.975049019E0,9.757364260E0
3.199400006E0,-1.706106424E0,3.441205978E0,8.958291054E0,9.746982934E0
3.201769693E0,-1.713288546E0,3.410082817E0,8.975049019E0,9.752718972E0
3.204138548E0,-1.684559584E0,3.398112297E0,8.979836464E0,9.747941890E0
3.206507454E0,-1.696530104E0,3.400506258E0,8.987019539E0,9.757467776E0
3.208877193E0,-1.713288546E0,3.405294418E0,8.972654343E0,9.748841658E0
3.211246829E0,-1.739623785E0,3.417264938E0,9.006172180E0,9.788520210E0
3.213615735E0,-1.753988504E0,3.402900219E0,9.022931099E0,9.801504537E0
3.215984641E0,-1.758776426E0,3.426841259E0,9.039690018E0,9.826114753E0
3.218354329E0,-1.758776426E0,3.434023619E0,9.044477463E0,9.833025237E0
3.220724016E0,-1.792294025E0,3.431629419E0,9.056448936E0,9.849246960E0
3.223092923E0,-1.782717466E0,3.453176498E0,9.089965820E0,9.885847870E0
3.225461829E0,-1.799476385E0,3.448388338E0,9.077994347E0,9.876207711E0
3.227831516E0,-1.813840866E0,3.434023619E0,9.073206902E0,9.869428574E0
3.230201204E0,-1.782717466E0,3.426841259E0,9.109118462E0,9.894309563E0
3.232570058E0,-1.792294025E0,3.426841259E0,9.101935387E0,9.889428025E0
3.234938964E0,-1.794687986E0,3.414870739E0,9.125876427E0,9.907768048E0
3.237308652E0,-1.811446667E0,3.407688618E0,9.135454178E0,9.917167125E0
3.239678339E0,-1.835387707E0,3.381353617E0,9.147423744E0,9.923586120E0
3.242047245E0,-1.821022987E0,3.414870739E0,9.135454178E0,9.921390524E0
3.244416152E0,-1.832993507E0,3.395718098E0,9.171364784E0,9.950110482E0
3.246785839E0,-1.842570066E0,3.412476778E0,9.164182663E0,9.950995231E0
3.249155475E0,-1.852146387E0,3.407688618E0,9.173758507E0,9.959951460E0
3.251524381E0,-1.864116669E0,3.436417818E0,9.178547859E0,9.976454239E0
3.253893287E0,-1.859328747E0,3.455570459E0,9.176153183E0,9.979972837E0
3.256262975E0,-1.861722708E0,3.450782299E0,9.168971062E0,9.972158254E0
3.258632662E0,-1.844964027E0,3.450782299E0,9.173758507E0,9.973446540E0
3.261001568E0,-1.849752188E0,3.467540979E0,9.168971062E0,9.975743277E0
3.263370475E0,-1.830599546E0,3.465147018E0,9.159394264E0,9.962572050E0
3.265740162E0,-1.804264545E0,3.445993900E0,9.178547859E0,9.968750439E0
3.268109850E0,-1.804264545E0,3.460358858E0,9.164182663E0,9.960506908E0
3.270478704E0,-1.794687986E0,3.484299660E0,9.185729980E0,9.986935684E0
3.272847610E0,-1.765958786E0,3.493875980E0,9.176153183E0,9.976350387E0
3.275217350E0,-1.761170626E0,3.501058578E0,9.188123703E0,9.989031501E0
3.277586985E0,-1.753988504E0,3.505846500E0,9.212064743E0,1.001147203E1
3.279955891E0,-1.720470905E0,3.486693859E0,9.216853142E0,1.000337123E1
3.282324798E0,-1.720470905E0,3.508240700E0,9.195305824E0,9.991067117E0
3.284694485E0,-1.713288546E0,3.524999142E0,9.207276344E0,1.000674344E1
3.287064173E0,-1.696530104E0,3.505846500E0,9.200093269E0,9.990540038E0
3.289433027E0,-1.679771304E0,3.546546221E0,9.180941582E0,9.984453418E0
3.291801933E0,-1.679771304E0,3.527393579E0,9.173758507E0,9.971057228E0
3.294171673E0,-1.670194864E0,3.541758060E0,9.197699547E0,9.996563309E0
3.296541308E0,-1.658224463E0,3.532181740E0,9.190517426E0,9.984569433E0
3.298910214E0,-1.639071703E0,3.520211220E0,9.192912102E0,9.979382546E0
3.301279120E0,-1.639071703E0,3.524999142E0,9.219246864E0,1.000533297E1
3.303648808E0,-1.643859744E0,3.532181740E0,9.219246864E0,1.000865103E1
3.306018495E0,-1.658224463E0,3.524999142E0,9.204882622E0,9.995258446E0
3.308387350E0,-1.658224463E0,3.527393579E0,9.214458466E0,1.000492172E1
3.310756256E0,-1.667800784E0,3.541758060E0,9.207276344E0,1.000497613E1
3.313125995E0,-1.665406704E0,3.539364100E0,9.197699547E0,9.994916441E0
3.315495631E0,-1.677377105E0,3.556122780E0,9.197699547E0,1.000286360E1
3.317864537E0,-1.660618544E0,3.553728580E0,9.173758507E0,9.977198300E0
3.320233443E0,-1.667800784E0,3.565699100E0,9.178547859E0,9.987067154E0
3.322603131E0,-1.667800784E0,3.548940182E0,9.176153183E0,9.978893882E0
3.324972818E0,-1.679771304E0,3.539364100E0,9.171364784E0,9.973096905E0
3.327341673E0,-1.694135904E0,3.527393579E0,9.142635345E0,9.944867168E0
3.329710579E0,-1.684559584E0,3.522605181E0,9.145030022E0,9.943744885E0
3.332080318E0,-1.694135904E0,3.544152260E0,9.101935387E0,9.913442363E0
3.334449954E0,-1.694135904E0,3.522605181E0,9.145030022E0,9.945371678E0
3.336818860E0,-1.698924065E0,3.503452539E0,9.135454178E0,9.930611548E0
3.339187766E0,-1.718076944E0,3.522605181E0,9.113906860E0,9.920878686E0
3.341557454E0,-1.722865105E0,3.536969662E0,9.111513138E0,9.924620407E0
3.343927141E0,-1.730047464E0,3.532181740E0,9.094753265E0,9.908779392E0
3.346295995E0,-1.734835625E0,3.536969662E0,9.097147942E0,9.913521559E0
3.348664902E0,-1.725259066E0,3.515423059E0,9.089965820E0,9.897585400E0
3.351034641E0,-1.715682745E0,3.508240700E0,9.087572098E0,9.891172161E0
3.353404277E0,-1.713288546E0,3.508240700E0,9.077994347E0,9.881957893E0
3.355773183E0,-1.713288546E0,3.479511499E0,9.073206902E0,9.867392837E0
3.358142089E0,-1.694135904E0,3.477117538E0,9.085177422E0,9.874253978E0
3.360511777E0,-1.706106424E0,3.455570459E0,9.113906860E0,9.895204121E0
3.362881464E0,-1.725259066E0,3.457964420E0,9.109118462E0,9.894952042E0
3.365250318E0,-1.722865105E0,3.438811779E0,9.137847900E0,9.914330783E0
3.367619225E0,-1.718076944E0,3.455570459E0,9.142635345E0,9.923736023E0
3.369988964E0,-1.698924065E0,3.455570459E0,9.123482704E0,9.902789851E0
3.372358600E0,-1.698924065E0,3.438811779E0,9.133059502E0,9.905783426E0
3.374727506E0,-1.734835625E0,3.448388338E0,9.147423744E0,9.928564747E0
3.377096412E0,-1.742017984E0,3.448388338E0,9.161788940E0,9.943057144E0
3.379466100E0,-1.718076944E0,3.434023619E0,9.123482704E0,9.898598045E0
3.381835787E0,-1.718076944E0,3.434023619E0,9.104331017E0,9.880948834E0
3.384204641E0,-1.703712225E0,3.402900219E0,9.092359543E0,9.856640772E0
3.386573548E0,-1.720470905E0,3.400506258E0,9.092359543E0,9.858725323E0
3.388943235E0,-1.698924065E0,3.400506258E0,9.077994347E0,9.841735982E0
3.391312923E0,-1.698924065E0,3.381353617E0,9.042083740E0,9.801998451E0
3.393681829E0,-1.682165384E0,3.383747578E0,9.027718544E0,9.786681264E0
3.396050735E0,-1.684559584E0,3.390929699E0,8.989413261E0,9.754265528E0
3.398420423E0,-1.696530104E0,3.374171257E0,8.982231140E0,9.743906933E0
3.400790058E0,-1.691741705E0,3.390929699E0,8.960684776E0,9.729042393E0
3.403158964E0,-1.715682745E0,3.381353617E0,8.958291054E0,9.727697475E0
3.405527870E0,-1.718076944E0,3.412476778E0,8.967866898E0,9.747790665E0
3.407897558E0,-1.713288546E0,3.417264938E0,8.972654343E0,9.753029440E0
3.410267245E0,-1.746806145E0,3.422053099E0,8.963078499E0,9.751848814E0
3.412636100E0,-1.746806145E0,3.431629419E0,8.955895424E0,9.748614005E0
3.415005006E0,-1.746806145E0,3.443599939E0,8.953501701E0,9.750636131E0
3.417374745E0,-1.765958786E0,3.429235458E0,8.931954384E0,9.729238170E0
3.419744381E0,-1.761170626E0,3.448388338E0,8.953501701E0,9.754911420E0
3.422113287E0,-1.758776426E0,3.434023619E0,8.927166939E0,9.725231220E0
3.424482193E0,-1.794687986E0,3.436417818E0,8.941532135E0,9.745812912E0
3.426851881E0,-1.780323505E0,3.429235458E0,8.917591095E0,9.718674732E0
3.429221568E0,-1.799476385E0,3.431629419E0,8.919984818E0,9.725241636E0
3.431590423E0,-1.789899826E0,3.422053099E0,8.951107979E0,9.748667747E0
3.433959329E0,-1.799476385E0,3.417264938E0,8.953501701E0,9.750949063E0
3.436329068E0,-1.811446667E0,3.424447298E0,8.939137459E0,9.742502596E0
3.438698704E0,-1.811446667E0,3.429235458E0,8.975049019E0,9.777141696E0
3.441067610E0,-1.806658506E0,3.426841259E0,8.960684776E0,9.762229645E0
3.443436516E0,-1.794687986E0,3.438811779E0,8.975049019E0,9.777414603E0
3.445806204E0,-1.785111427E0,3.441205978E0,8.967866898E0,9.769910854E0
3.448175891E0,-1.768352985E0,3.462752819E0,8.987019539E0,9.792050325E0
3.450544745E0,-1.765958786E0,3.445993900E0,8.994201660E0,9.792300440E0
3.452913652E0,-1.780323505E0,3.443599939E0,9.018142700E0,9.816049617E0
3.455283391E0,-1.775535345E0,3.448388338E0,9.022931099E0,9.821262317E0
3.457653027E0,-1.765958786E0,3.441205978E0,9.046872139E0,9.839024572E0
3.460021933E0,-1.777929306E0,3.443599939E0,9.068418503E0,9.861826773E0
3.462390839E0,-1.797081947E0,3.462752819E0,9.099541664E0,9.900596907E0
3.464760527E0,-1.753988504E0,3.441205978E0,9.085177422E0,9.872123532E0
3.467130214E0,-1.780323505E0,3.462752819E0,9.123482704E0,9.919583939E0
3.469499068E0,-1.773141146E0,3.460358858E0,9.154606819E0,9.946101697E0
3.471867975E0,-1.804264545E0,3.467540979E0,9.185729980E0,9.982827569E0
3.474237662E0,-1.758776426E0,3.448388338E0,9.209671021E0,9.990130978E0
3.476607350E0,-1.780323505E0,3.443599939E0,9.197699547E0,9.981262910E0
3.478976256E0,-1.765958786E0,3.431629419E0,9.183335304E0,9.961342189E0
3.481345162E0,-1.758776426E0,3.441205978E0,9.178547859E0,9.958962491E0
3.483714850E0,-1.732441425E0,3.441205978E0,9.171364784E0,9.947722548E0
3.486084485E0,-1.706106424E0,3.450782299E0,9.159394264E0,9.935451721E0
3.488453391E0,-1.701318264E0,3.441205978E0,9.212064743E0,9.979905774E0
3.490822298E0,-1.672589064E0,3.448388338E0,9.202488899E0,9.968687890E0
3.493191985E0,-1.682165384E0,3.434023619E0,9.197699547E0,9.960917405E0
3.495561673E0,-1.674983025E0,3.445993900E0,9.226429939E0,9.990367937E0
3.497930527E0,-1.667800784E0,3.479511499E0,9.221640587E0,9.996360080E0
3.500299433E0,-1.619918823E0,3.462752819E0,9.236005783E0,9.995929017E0
3.502669173E0,-1.617524743E0,3.460358858E0,9.247975349E0,1.000577422E1
3.505038808E0,-1.579219103E0,3.474723339E0,9.216853142E0,9.975871746E0
3.507407714E0,-1.555278182E0,3.455570459E0,9.221640587E0,9.969880267E0
3.509776620E0,-1.552883983E0,3.477117538E0,9.190517426E0,9.948236305E0
3.512146308E0,-1.538519382E0,3.477117538E0,9.200093269E0,9.954853310E0
3.514515995E0,-1.505002022E0,3.469934940E0,9.192912102E0,9.940579082E0
3.516884850E0,-1.495425701E0,3.479511499E0,9.202488899E0,9.951336606E0
3.519253756E0,-1.485849261E0,3.467540979E0,9.192912102E0,9.936861747E0
3.521623495E0,-1.476272941E0,3.472329140E0,9.190517426E0,9.934891142E0
3.523993131E0,-1.469090700E0,3.491482019E0,9.180941582E0,9.931684777E0
3.526362037E0,-1.457120180E0,3.498664141E0,9.183335304E0,9.934661408E0
3.528730943E0,-1.473878741E0,3.515423059E0,9.188123703E0,9.947468774E0
3.531100631E0,-1.437967300E0,3.503452539E0,9.195305824E0,9.944625627E0
3.533470318E0,-1.433179140E0,3.524999142E0,9.164182663E0,9.922795235E0
3.535839173E0,-1.442755580E0,3.529787540E0,9.166576385E0,9.928094801E0
3.538208079E0,-1.425996780E0,3.539364100E0,9.152213097E0,9.915824202E0
3.540577766E0,-1.409238100E0,3.534575701E0,9.145030022E0,9.905087153E0
3.542947454E0,-1.416420460E0,3.532181740E0,9.157000542E0,9.916310487E0
3.545316308E0,-1.433179140E0,3.529787540E0,9.133059502E0,9.895765680E0
3.547685214E0,-1.402055740E0,3.508240700E0,9.121088982E0,9.872577035E0
3.550054954E0,-1.409238100E0,3.517817020E0,9.092359543E0,9.850481748E0
3.552424589E0,-1.409238100E0,3.522605181E0,9.085177422E0,9.845564893E0
3.554793495E0,-1.404449940E0,3.527393579E0,9.070813179E0,9.833343115E0
3.557162402E0,-1.409238100E0,3.520211220E0,9.049265862E0,9.811577431E0
3.559532089E0,-1.399661779E0,3.522605181E0,9.039690018E0,9.802234234E0
3.561901777E0,-1.418814540E0,3.510634661E0,9.030112267E0,9.791859781E0
3.564270631E0,-1.428390861E0,3.515423059E0,9.018142700E0,9.783935686E0
3.566639537E0,-1.428390861E0,3.527393579E0,9.022931099E0,9.792654979E0
3.569009277E0,-1.454725981E0,3.532181740E0,8.991807938E0,9.769603140E0
3.571378912E0,-1.457120180E0,3.539364100E0,8.979836464E0,9.761544978E0
3.573747818E0,-1.447543621E0,3.539364100E0,8.955895424E0,9.738097535E0
3.576116725E0,-1.457120180E0,3.541758060E0,8.934350014E0,9.720589465E0
3.578486412E0,-1.452331901E0,3.522605181E0,8.946319580E0,9.723921495E0
3.580856100E0,-1.437967300E0,3.541758060E0,8.931954384E0,9.715534428E0
3.583224954E0,-1.447543621E0,3.513028860E0,8.924772263E0,9.699913105E0
3.585593860E0,-1.435573101E0,3.505846500E0,8.912802696E0,9.684517629E0
3.587963600E0,-1.428390861E0,3.536969662E0,8.898437500E0,9.681562104E0
3.590333235E0,-1.387691259E0,3.505846500E0,8.900832176E0,9.666512305E0
3.592702089E0,-1.394873500E0,3.522605181E0,8.888861656E0,9.662622878E0
3.595070995E0,-1.399661779E0,3.508240700E0,8.876891136E0,9.647072206E0
3.597440735E0,-1.368538380E0,3.481905460E0,8.898437500E0,9.652914217E0
3.599810370E0,-1.385297179E0,3.481905460E0,8.903225899E0,9.659717662E0
3.602179277E0,-1.397267699E0,3.496270180E0,8.939137459E0,9.699713434E0
3.604548183E0,-1.418814540E0,3.501058578E0,8.951107979E0,9.715594676E0
3.606917870E0,-1.428390861E0,3.508240700E0,8.967866898E0,9.735023880E0
3.609287558E0,-1.437967300E0,3.520211220E0,8.967866898E0,9.740753240E0
3.611656412E0,-1.461908340E0,3.546546221E0,9.003777504E0,9.786887934E0
3.614025318E0,-1.473878741E0,3.541758060E0,9.042083740E0,9.822201742E0
3.616395058E0,-1.478667021E0,3.529787540E0,9.044477463E0,9.820816097E0
3.618764693E0,-1.483455181E0,3.548940182E0,9.051659584E0,9.835047377E0
3.621133600E0,-1.449937820E0,3.541758060E0,9.046872139E0,9.823047661E0
3.623502506E0,-1.442755580E0,3.548940182E0,9.054053307E0,9.831195317E0
3.625872193E0,-1.397267699E0,3.544152260E0,9.054053307E0,9.822894357E0
3.628241881E0,-1.382902980E0,3.515423059E0,9.051659584E0,9.808321017E0
3.630610735E0,-1.346991539E0,3.496270180E0,9.070813179E0,9.814170526E0
3.632979641E0,-1.332627058E0,3.496270180E0,9.066024780E0,9.807782897E0
3.635349329E0,-1.325444698E0,3.496270180E0,9.092359543E0,9.831160200E0
3.637719016E0,-1.315868258E0,3.513028860E0,9.070813179E0,9.815932598E0
3.640087870E0,-1.289533138E0,3.524999142E0,9.056448936E0,9.803457655E0
3.642456777E0,-1.299109578E0,3.539364100E0,9.075600624E0,9.827579082E0
3.644826516E0,-1.275168657E0,3.565699100E0,9.073206902E0,9.831752065E0
3.647196152E0,-1.234468937E0,3.580063820E0,9.082783699E0,9.840616354E0
3.649565058E0,-1.203345656E0,3.587245941E0,9.101935387E0,9.857058486E0
3.651933964E0,-1.169828296E0,3.601610422E0,9.116300583E0,9.871526335E0
3.654303652E0,-1.141098976E0,3.615974903E0,9.147423744E0,9.902158478E0
3.656673339E0,-1.141098976E0,3.608792782E0,9.164182663E0,9.915025774E0
3.659042193E0,-1.117158055E0,3.639915943E0,9.164182663E0,9.923672409E0
3.661411100E0,-1.083640695E0,3.637521982E0,9.173758507E0,9.927924681E0
3.663780839E0,-1.074064255E0,3.632733822E0,9.185729980E0,9.936196673E0
3.666150475E0,-1.057305694E0,3.632733822E0,9.195305824E0,9.943253972E0
3.668519381E0,-1.050123334E0,3.627945423E0,9.192912102E0,9.938530068E0
3.670888287E0,-1.050123334E0,3.651886463E0,9.207276344E0,9.960570839E0
3.673257975E0,-1.030970573E0,3.625551462E0,9.255158424E0,9.993271796E0
3.675627610E0,-1.021394134E0,3.639915943E0,9.240794182E0,9.984213097E0
3.677996516E0,-1.011817813E0,3.647098541E0,9.240794182E0,9.985859010E0
3.680365423E0,-1.059699655E0,3.654280663E0,9.255158424E0,1.000673213E1
3.682735110E0,-1.042940974E0,3.642310143E0,9.255158424E0,1.000060531E1
3.685104798E0,-1.047729135E0,3.639915943E0,9.267128944E0,1.001131376E1
3.687473652E0,-1.038152814E0,3.673433542E0,9.233612061E0,9.991569794E0
3.689842558E0,-1.045335174E0,3.678221703E0,9.224034309E0,9.985231568E0
3.692212298E0,-1.071670175E0,3.661463022E0,9.185729980E0,9.946477955E0
3.694581933E0,-1.064487934E0,3.675827503E0,9.188123703E0,9.953213530E0
3.696950839E0,-1.088428855E0,3.654280663E0,9.192912102E0,9.952290060E0
3.699319745E0,-1.126734495E0,3.678221703E0,9.188123703E0,9.960946878E0
3.701689433E0,-1.141098976E0,3.692586184E0,9.236005783E0,1.001204786E1
3.704059068E0,-1.172222376E0,3.697374582E0,9.221640587E0,1.000416609E1
3.706427975E0,-1.184192896E0,3.702162743E0,9.231217384E0,1.001617173E1
3.708796881E0,-1.217710257E0,3.745256424E0,9.247975349E0,1.005160743E1
3.711166568E0,-1.239257216E0,3.776379824E0,9.240794182E0,1.005927831E1
3.713536256E0,-1.272774577E0,3.771591425E0,9.231217384E0,1.005287180E1
3.715905110E0,-1.291927338E0,3.783561945E0,9.231217384E0,1.005981072E1
3.718274016E0,-1.289533138E0,3.793138504E0,9.212064743E0,1.004554290E1
3.720643756E0,-1.323050499E0,3.795532465E0,9.219246864E0,1.005738744E1
3.723013391E0,-1.354173899E0,3.797926664E0,9.233612061E0,1.007559554E1
3.725382298E0,-1.363750339E0,3.812291145E0,9.233612061E0,1.008230978E1
3.727751204E0,-1.361356139E0,3.817079544E0,9.236005783E0,1.008598977E1
3.730120891E0,-1.351779819E0,3.812291145E0,9.231217384E0,1.007850420E1
3.732490527E0,-1.332627058E0,3.790744305E0,9.250370979E0,1.008538549E1
3.734859433E0,-1.330232859E0,3.783561945E0,9.221640587E0,1.005601887E1
3.737228339E0,-1.318262458E0,3.754832745E0,9.228823662E0,1.005026224E1
3.739598027E0,-1.294321418E0,3.735680103E0,9.200093269E0,1.001360524E1
3.741967714E0,-1.244045258E0,3.730891705E0,9.188123703E0,9.994439389E0
3.744336568E0,-1.193769336E0,3.718921185E0,9.204882622E0,9.999266177E0
3.746705475E0,-1.167434216E0,3.685404062E0,9.183335304E0,9.963872393E0
3.749075214E0,-1.143493176E0,3.685404062E0,9.188123703E0,9.965510370E0
3.751444850E0,-1.095611215E0,3.687798023E0,9.183335304E0,9.956599093E0
3.753813756E0,-1.088428855E0,3.663856983E0,9.185729980E0,9.949178893E0
3.756182662E0,-1.076458454E0,3.654280663E0,9.173758507E0,9.933296286E0
3.758552350E0,-1.071670175E0,3.627945423E0,9.137847900E0,9.889930698E0
3.760921985E0,-1.040546894E0,3.647098541E0,9.135454178E0,9.891440170E0
3.763290891E0,-1.030970573E0,3.637521982E0,9.097147942E0,9.851526134E0
3.765659798E0,-1.057305694E0,3.625551462E0,9.066024780E0,9.821167143E0
3.768029485E0,-1.071670175E0,3.630339861E0,9.051659584E0,9.811237725E0
3.770399173E0,-1.074064255E0,3.647098541E0,9.037295341E0,9.804470862E0
3.772768027E0,-1.064487934E0,3.615974903E0,8.975049019E0,9.734470399E0
3.775136933E0,-1.081246614E0,3.625551462E0,9.006172180E0,9.768564633E0
3.777506673E0,-1.083640695E0,3.618369341E0,8.998990059E0,9.759543838E0
3.779876308E0,-1.160251856E0,3.637521982E0,8.994201660E0,9.771049792E0
3.782245214E0,-1.181798816E0,3.663856983E0,8.991807938E0,9.781263028E0
3.784614120E0,-1.248833537E0,3.692586184E0,9.001383781E0,9.809163466E0
3.786983808E0,-1.253621697E0,3.685404062E0,9.018142700E0,9.822457341E0
3.789353443E0,-1.284744978E0,3.706950665E0,9.022931099E0,9.838970399E0
3.791722350E0,-1.349385619E0,3.742862225E0,9.042083740E0,9.878721453E0
3.794091256E0,-1.370932579E0,3.733285904E0,9.044477463E0,9.880255682E0
3.796460943E0,-1.366144419E0,3.738074303E0,9.080389977E0,9.914284250E0
3.798830631E0,-1.397267699E0,3.730891705E0,9.075600624E0,9.911530488E0
3.801199485E0,-1.440361381E0,3.728497744E0,9.075600624E0,9.916797014E0
3.803568391E0,-1.497819781E0,3.742862225E0,9.082783699E0,9.937275354E0
3.805938131E0,-1.495425701E0,3.733285904E0,9.085177422E0,9.935500513E0
3.808307766E0,-1.509790301E0,3.747650385E0,9.094753265E0,9.951828330E0
3.810676673E0,-1.521760821E0,3.711739063E0,9.073206902E0,9.920476115E0
3.813045579E0,-1.528943062E0,3.687798023E0,9.058842659E0,9.899502587E0
3.815415266E0,-1.552883983E0,3.711739063E0,9.068418503E0,9.920920808E0
3.817784954E0,-1.540913582E0,3.651886463E0,9.066024780E0,9.894619483E0
3.820153808E0,-1.543307662E0,3.611186981E0,9.020536423E0,9.838320350E0
3.822522714E0,-1.543307662E0,3.596822262E0,8.984625816E0,9.800123978E0
3.824892402E0,-1.545701742E0,3.553728580E0,8.989413261E0,9.789163983E0
3.827262089E0,-1.564854503E0,3.568093300E0,8.960684776E0,9.771076249E0
3.829630943E0,-1.584007263E0,3.539364100E0,8.967866898E0,9.770302653E0
3.831999850E0,-1.591189623E0,3.546546221E0,8.958291054E0,9.765288174E0
3.834369589E0,-1.658224463E0,3.534575701E0,8.958291054E0,9.772098667E0
3.836739225E0,-1.660618544E0,3.541758060E0,8.941532135E0,9.759749025E0
3.839108131E0,-1.665406704E0,3.532181740E0,8.936743736E0,9.752706083E0
3.841477037E0,-1.698924065E0,3.544152260E0,8.919984818E0,9.747486207E0
3.843846725E0,-1.753988504E0,3.577669621E0,8.929560661E0,9.778202759E0
3.846216360E0,-1.789899826E0,3.604004860E0,8.931954384E0,9.796550492E0
3.848585266E0,-1.813840866E0,3.651886463E0,8.965473175E0,9.849162537E0
3.850954173E0,-1.844964027E0,3.668645144E0,8.989413261E0,9.882934799E0
3.853323860E0,-1.895240307E0,3.718921185E0,9.034901619E0,9.952474962E0
3.855693548E0,-1.933545828E0,3.778773785E0,9.101935387E0,1.004305524E1
3.858062402E0,-2.007762671E0,3.783561945E0,9.149817467E0,1.010275267E1
3.860431308E0,-2.034097672E0,3.814685345E0,9.166576385E0,1.013486558E1
3.862801048E0,-2.081979752E0,3.833837986E0,9.195305824E0,1.017775037E1
3.865170683E0,-2.117891312E0,3.884114265E0,9.233612061E0,1.023872057E1
3.867539589E0,-2.122679472E0,3.886508226E0,9.252764702E0,1.025789301E1
3.869908495E0,-2.158591032E0,3.879326105E0,9.291069984E0,1.029721650E1
3.872278183E0,-2.163379192E0,3.872143745E0,9.307828903E0,1.031064429E1
3.874647818E0,-2.168167591E0,3.874537706E0,9.329375267E0,1.033200058E1
3.877016725E0,-2.194502592E0,3.874537706E0,9.346135139E0,1.035268690E1
3.879385631E0,-2.199290752E0,3.860173225E0,9.367680550E0,1.036779900E1
3.881755318E0,-2.196896553E0,3.864961386E0,9.394015312E0,1.039287278E1
3.884125006E0,-2.184926033E0,3.867355585E0,9.434715271E0,1.042804839E1
3.886493860E0,-2.194502592E0,3.855385065E0,9.453868866E0,1.044296281E1
3.888862766E0,-2.184926033E0,3.831444025E0,9.473021507E0,1.044949767E1
3.891232454E0,-2.175349712E0,3.841020584E0,9.508933067E0,1.048357733E1
3.893602141E0,-2.189714193E0,3.833837986E0,9.566391945E0,1.053608166E1
3.895970995E0,-2.192108631E0,3.814685345E0,9.631031990E0,1.058838712E1
3.898339902E0,-2.149014473E0,3.817079544E0,9.666943550E0,1.061311251E1
3.900709641E0,-2.120285511E0,3.817079544E0,9.710038185E0,1.064662146E1
3.903079277E0,-2.103526831E0,3.802714825E0,9.695672989E0,1.062504305E1
3.905448183E0,-2.058038712E0,3.797926664E0,9.681307793E0,1.060129666E1
3.907817089E0,-2.038886070E0,3.824261665E0,9.633425713E0,1.056337657E1
3.910186777E0,-2.019733191E0,3.838626146E0,9.578361511E0,1.051472216E1
3.912556412E0,-2.000580549E0,3.824261665E0,9.489779472E0,1.042512418E1
3.914925318E0,-1.986216068E0,3.843414545E0,9.425139427E0,1.037063850E1
3.917294225E0,-1.979033470E0,3.872143745E0,9.365286827E0,1.032563160E1
3.919663912E0,-1.969457388E0,3.881720066E0,9.286281586E0,1.025580513E1
3.922033600E0,-2.000580549E0,3.879326105E0,9.216853142E0,1.019813098E1
3.924402454E0,-1.979033470E0,3.888902426E0,9.121088982E0,1.011110280E1
3.926771360E0,-1.988610029E0,3.908055305E0,9.049265862E0,1.005567893E1
3.929141100E0,-1.993398190E0,3.893690586E0,8.977442741E0,9.986437848E0
3.931510735E0,-1.983821869E0,3.898478746E0,8.876891136E0,9.896104384E0
3.933879641E0,-2.022127628E0,3.896084785E0,8.826614380E0,9.857869862E0
3.936248548E0,-2.034097672E0,3.900872707E0,8.733244896E0,9.778748776E0
3.938618235E0,-2.062827110E0,3.879326105E0,8.668604851E0,9.718494574E0
3.940987870E0,-2.101132870E0,3.879326105E0,8.639874458E0,9.701101021E0
3.943356777E0,-2.127467871E0,3.881720066E0,8.582416534E0,9.656694247E0
3.945725683E0,-2.165773392E0,3.888902426E0,8.520169258E0,9.612877855E0
3.948095370E0,-2.223231792E0,3.876931906E0,8.455530167E0,9.563961052E0
3.950465058E0,-2.251960754E0,3.876931906E0,8.390889168E0,9.513619147E0
3.952833912E0,-2.309419394E0,3.912843227E0,8.319066048E0,9.478956692E0
3.955202818E0,-2.347724676E0,3.934390306E0,8.256819725E0,9.442791442E0
3.957572506E0,-2.390818596E0,3.979878187E0,8.158660889E0,9.387182295E0
3.959942193E0,-2.460247517E0,4.011001587E0,8.110778809E0,9.376869651E0
3.962311048E0,-2.488976717E0,4.073247910E0,8.034168243E0,9.345277577E0
3.964679954E0,-2.539252758E0,4.097188950E0,8.012620926E0,9.350767667E0
3.967049693E0,-2.558405638E0,4.159435272E0,7.947981358E0,9.328276843E0
3.969419329E0,-2.594316959E0,4.195346832E0,7.914463520E0,9.325778699E0
3.971788235E0,-2.611075878E0,4.231258392E0,7.861793995E0,9.302100281E0
3.974157141E0,-2.618257999E0,4.259987354E0,7.840246677E0,9.299044853E0
3.976526829E0,-2.608681440E0,4.276746273E0,7.833064556E0,9.297993218E0
3.978896464E0,-2.596710920E0,4.293505192E0,7.837852955E0,9.306397444E0
3.981265370E0,-2.572770119E0,4.303081512E0,7.866581440E0,9.328384648E0
3.983634277E0,-2.529676199E0,4.315052032E0,7.866581440E0,9.322126328E0
3.986003964E0,-2.500947237E0,4.291110992E0,7.873764515E0,9.309379048E0
3.988373652E0,-2.421941757E0,4.286323071E0,7.830669880E0,9.249743678E0
3.990742506E0,-2.381242275E0,4.264776230E0,7.835458279E0,9.233257145E0
3.993111412E0,-2.340542555E0,4.262382030E0,7.845035076E0,9.229876238E0
3.995481152E0,-2.316601515E0,4.228864670E0,7.854610920E0,9.216553134E0
3.997850787E0,-2.251960754E0,4.233652592E0,7.912069798E0,9.251810092E0
4.000219641E0,-2.208867073E0,4.243228912E0,7.947981358E0,9.276556096E0
4.002588548E0,-2.172955513E0,4.224075794E0,8.007833481E0,9.310743742E0
4.004958287E0,-2.137043953E0,4.216894150E0,8.055715561E0,9.340433947E0
4.007327923E0,-2.091556311E0,4.221682072E0,8.062897682E0,9.338497007E0
